time;ax;ay;az;aT
0.004000;-0.0089;-0.2999;-1.9483;1.971
0.005000;-0.0172;-0.2106;-1.7091;1.722
0.006000;-0.0464;-0.1313;-1.2992;1.307
0.009000;-0.0777;-0.0437;-0.9024;0.907
0.011000;-0.0791;0.0676;-0.4897;0.501
0.017000;-0.0536;0.1230;-0.1839;0.228
0.026000;-0.0871;0.1606;0.1041;0.210
0.027000;-0.0749;0.2220;0.2541;0.346
0.031000;-0.0479;0.2711;0.4028;0.488
0.039000;0.0133;0.3595;0.5124;0.626
0.041000;0.0897;0.4366;0.5743;0.727
0.046000;0.1484;0.5139;0.5960;0.801
0.051000;0.1825;0.5390;0.6019;0.828
0.055000;0.1637;0.4506;0.5518;0.731
0.061000;0.1536;0.3615;0.5244;0.655
0.065000;0.0946;0.2288;0.4623;0.524
0.074000;0.0385;0.1385;0.3636;0.391
0.075000;0.0182;0.1142;0.2568;0.282
0.081000;0.0165;0.1130;0.2106;0.240
0.087000;0.0620;0.1228;0.1272;0.187
0.091000;0.0956;0.1388;0.0497;0.176
0.095000;0.1679;0.1471;0.0157;0.224
0.101000;0.2174;0.1666;0.0204;0.275
0.108000;0.2304;0.1381;0.0063;0.269
0.109000;0.2239;0.1237;0.0305;0.258
0.114000;0.2098;0.1209;0.0430;0.246
0.129000;0.1905;0.1202;0.0697;0.236
0.130000;0.1680;0.0839;0.0821;0.205
0.130000;0.1280;0.0573;0.0827;0.163
0.134000;0.0935;0.0402;0.0786;0.129
0.140000;0.0308;0.0683;0.0533;0.092
0.145000;0.0116;0.0417;0.0684;0.081
0.150000;-0.0286;0.0508;0.0574;0.082
0.156000;-0.0328;0.0386;0.0488;0.070
0.159000;-0.0300;-0.0043;0.0047;0.031
0.164000;0.0082;0.0292;-0.0273;0.041
0.171000;-0.0110;-0.0135;-0.0543;0.057
0.179000;-0.0040;-0.0391;-0.1310;0.137
0.180000;0.0146;-0.0573;-0.1359;0.148
0.183000;-0.0384;-0.0444;-0.1362;0.148
0.189000;-0.0697;-0.0266;-0.1887;0.203
0.193000;-0.0845;-0.0374;-0.1531;0.179
0.197000;-0.1186;-0.0384;-0.1582;0.201
0.204000;-0.1295;-0.0536;-0.1586;0.212
0.208000;-0.1626;-0.0687;-0.1472;0.230
0.213000;-0.1843;-0.1052;-0.1453;0.257
0.229000;-0.1971;-0.1225;-0.1032;0.254
0.229000;-0.2104;-0.1090;-0.0565;0.244
0.230000;-0.2218;-0.1268;-0.0742;0.266
0.232000;-0.2360;-0.1896;0.0673;0.310
0.237000;-0.1865;-0.1240;-0.2387;0.327
0.244000;-0.1256;-0.1822;-0.0770;0.234
0.247000;-0.0816;-0.2066;-0.0995;0.243
0.257000;-0.0543;-0.2140;-0.0909;0.239
0.259000;-0.0459;-0.2305;-0.0564;0.242
0.261000;-0.0561;-0.2231;-0.0245;0.231
0.266000;-0.0683;-0.2418;-0.0451;0.255
0.272000;-0.0992;-0.2343;-0.0133;0.255
0.275000;-0.1033;-0.2410;-0.0102;0.262
0.284000;-0.0762;-0.2147;-0.0451;0.232
0.288000;-0.0801;-0.2171;-0.0654;0.240
0.292000;-0.1030;-0.2219;-0.1260;0.275
0.296000;-0.1048;-0.2075;-0.1768;0.292
0.300000;-0.1096;-0.1976;-0.2702;0.352
0.305000;-0.0749;-0.1660;-0.2849;0.338
0.310000;-0.0865;-0.1816;-0.2784;0.343
0.315000;-0.0793;-0.1731;-0.2506;0.315
0.321000;-0.0866;-0.1931;-0.2659;0.340
0.325000;-0.0601;-0.1866;-0.2906;0.351
0.330000;0.0165;-0.1732;-0.2652;0.317
0.334000;0.0527;-0.1528;-0.2565;0.303
0.340000;0.0842;-0.1347;-0.3169;0.355
0.344000;0.0559;-0.1306;-0.3524;0.380
0.349000;0.0256;-0.1191;-0.3997;0.418
0.354000;0.0052;-0.1381;-0.4134;0.436
0.360000;-0.0460;-0.1399;-0.4272;0.452
0.365000;-0.0780;-0.1674;-0.4032;0.443
0.372000;-0.0768;-0.1725;-0.3844;0.428
0.374000;-0.0568;-0.1797;-0.3730;0.418
0.378000;-0.0393;-0.1438;-0.3357;0.367
0.384000;-0.0526;-0.1365;-0.3558;0.385
0.390000;-0.0253;-0.1124;-0.3757;0.393
0.394000;-0.0431;-0.0881;-0.4241;0.435
0.399000;-0.0388;-0.0682;-0.4557;0.462
0.404000;-0.0247;-0.0501;-0.4422;0.446
0.409000;-0.0202;-0.0671;-0.4101;0.416
0.414000;0.0080;-0.0668;-0.3665;0.373
0.418000;0.0098;-0.0758;-0.3259;0.335
0.428000;0.0088;-0.0843;-0.2762;0.289
0.429000;-0.0044;-0.0903;-0.1986;0.218
0.433000;-0.0014;-0.0964;-0.1239;0.157
0.442000;-0.0394;-0.1027;-0.0331;0.115
0.444000;-0.0565;-0.0811;0.0285;0.103
0.448000;-0.0644;-0.0720;0.1302;0.162
0.453000;-0.0467;-0.0635;0.1600;0.178
0.458000;-0.0245;-0.0200;0.1684;0.171
0.463000;-0.0265;-0.0154;0.1057;0.110
0.467000;-0.0403;-0.0325;0.0295;0.060
0.472000;-0.0327;-0.0662;-0.0389;0.084
0.477000;-0.0487;-0.0782;-0.0546;0.107
0.482000;-0.0381;-0.1064;-0.0845;0.141
0.488000;-0.0012;-0.0793;-0.0407;0.089
0.492000;0.0475;-0.0781;-0.0211;0.094
0.496000;0.1149;-0.0596;0.0336;0.134
0.501000;0.1438;-0.0360;0.1564;0.216
0.507000;0.1180;-0.0311;0.2093;0.242
0.511000;0.0643;0.0096;0.2640;0.272
0.517000;0.0520;0.0433;0.3301;0.337
0.522000;0.0285;0.0506;0.3422;0.347
0.527000;0.0626;0.0601;0.3925;0.402
0.531000;0.0492;0.0407;0.4070;0.412
0.537000;0.0456;0.0567;0.3621;0.369
0.543000;0.0539;0.0674;0.2914;0.304
0.545000;0.0523;0.0111;0.2402;0.246
0.550000;0.0124;0.0098;0.1797;0.180
0.555000;0.0297;0.0204;0.1266;0.132
0.560000;0.0448;0.0119;0.1096;0.119
0.565000;0.0386;-0.0038;0.0855;0.094
0.570000;0.0614;-0.0172;0.0974;0.116
0.575000;0.0512;-0.0406;0.0404;0.077
0.580000;0.0174;-0.0855;0.0433;0.097
0.585000;-0.0539;-0.0473;0.0320;0.079
0.590000;-0.0773;-0.0261;0.0734;0.110
0.594000;-0.0719;-0.0340;0.0503;0.094
0.599000;-0.0285;-0.0114;-0.0391;0.050
0.606000;-0.0450;-0.0202;-0.1114;0.122
0.610000;-0.0760;-0.0388;-0.1546;0.177
0.615000;-0.1115;-0.0384;-0.1547;0.195
0.620000;-0.1136;-0.0095;-0.1429;0.183
0.630000;-0.0996;-0.0140;-0.1145;0.152
0.631000;-0.0840;-0.0090;-0.0982;0.130
0.636000;-0.0620;-0.0445;-0.0773;0.109
0.639000;-0.0431;-0.0466;-0.0969;0.116
0.654000;-0.0056;-0.0817;-0.1279;0.152
0.655000;0.0623;-0.1211;-0.1089;0.174
0.655000;0.0770;-0.1290;-0.0831;0.172
0.659000;0.0676;-0.1198;-0.0625;0.151
0.663000;0.0296;-0.0605;-0.0492;0.083
0.668000;-0.0081;-0.0440;-0.0410;0.061
0.673000;-0.0478;-0.0221;-0.0758;0.092
0.678000;-0.0775;-0.0025;-0.0582;0.097
0.683000;-0.0784;-0.0133;-0.0718;0.107
0.688000;-0.0387;-0.0020;-0.0262;0.047
0.693000;-0.0371;-0.0142;0.0141;0.042
0.698000;-0.0352;-0.0500;0.0494;0.079
0.703000;-0.0331;-0.0355;0.1390;0.147
0.707000;-0.0594;-0.0499;0.2184;0.232
0.712000;-0.0737;-0.0336;0.2712;0.283
0.718000;-0.1075;-0.0488;0.2596;0.285
0.723000;-0.1012;0.0019;0.2507;0.270
0.727000;-0.0978;0.0398;0.2136;0.238
0.732000;-0.0826;0.0555;0.1532;0.183
0.738000;-0.0531;0.0376;0.0957;0.116
0.742000;-0.0473;0.0435;-0.0039;0.064
0.747000;-0.0437;0.0401;-0.0457;0.075
0.752000;-0.0471;0.0467;-0.0827;0.106
0.756000;-0.0055;0.0396;-0.1385;0.144
0.761000;-0.0259;0.0478;-0.1729;0.181
0.766000;-0.0272;0.0352;-0.1953;0.200
0.772000;-0.0640;0.0190;-0.2037;0.214
0.778000;-0.0626;0.0273;-0.1908;0.203
0.781000;-0.0972;0.0243;-0.1949;0.219
0.785000;-0.0868;0.0123;-0.1470;0.171
0.791000;-0.0465;-0.0228;-0.1496;0.158
0.796000;-0.0284;-0.0266;-0.1071;0.114
0.801000;0.0102;-0.0469;-0.0840;0.097
0.808000;0.0362;-0.0626;-0.0396;0.082
0.813000;0.0524;-0.0524;-0.0548;0.092
0.815000;0.0635;-0.0430;-0.0744;0.107
0.820000;0.0557;-0.0769;-0.0391;0.103
0.831000;0.0480;-0.0732;-0.0109;0.088
0.831000;0.0567;-0.0750;-0.0278;0.098
0.835000;0.0487;-0.0749;-0.0088;0.090
0.840000;0.0191;-0.0611;0.0221;0.068
0.845000;0.0184;-0.0359;0.0149;0.043
0.849000;-0.0083;-0.0445;0.0411;0.061
0.855000;-0.0017;-0.0628;-0.0230;0.067
0.859000;-0.0215;-0.0739;-0.0581;0.096
0.864000;0.0040;-0.1227;-0.1238;0.174
0.869000;0.0435;-0.0947;-0.1629;0.193
0.874000;0.0712;-0.0543;-0.1569;0.181
0.879000;0.1015;-0.0326;-0.0965;0.144
0.884000;0.0946;0.0035;-0.0153;0.096
0.890000;0.0627;0.0424;0.0460;0.089
0.893000;0.0603;0.0884;0.0973;0.145
0.899000;0.0704;0.1488;-0.0061;0.165
0.903000;0.0071;0.1494;0.3065;0.341
0.908000;-0.0413;0.1383;0.3887;0.415
0.913000;-0.0606;0.1703;0.3491;0.393
0.918000;-0.0321;0.1736;0.4949;0.526
0.924000;-0.0203;0.1992;0.5664;0.601
0.928000;0.0345;0.2079;0.6449;0.678
0.933000;0.0322;0.2065;0.7137;0.744
0.938000;0.0586;0.2528;0.7227;0.768
0.943000;0.0469;0.2559;0.7150;0.761
0.948000;0.0235;0.2466;0.7314;0.772
0.952000;0.0100;0.2489;0.7073;0.750
0.959000;-0.0106;0.2749;0.6858;0.739
0.962000;-0.0026;0.2690;0.7099;0.759
0.967000;0.0052;0.2818;0.7651;0.815
0.972000;0.0011;0.2749;0.7630;0.811
0.977000;0.0259;0.3053;0.7780;0.836
0.982000;0.0461;0.3012;0.7622;0.821
0.987000;0.0472;0.3011;0.7038;0.767
0.992000;0.0362;0.2905;0.6245;0.690
0.997000;0.0414;0.2958;0.5051;0.587
1.001000;0.0723;0.2982;0.4101;0.512
1.007000;0.1001;0.2930;0.3251;0.449
1.011000;0.1203;0.3115;0.2523;0.419
1.016000;0.1117;0.3154;0.2179;0.399
1.021000;0.1272;0.2978;0.1742;0.368
1.025000;0.1239;0.3017;0.1449;0.357
1.031000;0.1567;0.3033;0.1420;0.370
1.035000;0.1825;0.3120;0.1797;0.404
1.043000;0.1772;0.2898;0.2076;0.398
1.045000;0.1815;0.2414;0.2403;0.386
1.050000;0.1645;0.2478;0.1989;0.358
1.055000;0.1647;0.2471;0.2413;0.383
1.060000;0.1775;0.2363;0.3337;0.446
1.065000;0.1692;0.2227;0.3641;0.459
1.069000;0.1733;0.2420;0.3635;0.470
1.074000;0.1753;0.2152;0.3536;0.450
1.080000;0.1826;0.2213;0.3059;0.419
1.085000;0.1884;0.2385;0.2276;0.380
1.090000;0.1711;0.2101;0.1401;0.305
1.095000;0.1455;0.1982;0.0793;0.258
1.099000;0.1327;0.1816;0.0926;0.243
1.104000;0.1012;0.1102;0.0678;0.164
1.108000;0.0817;0.0821;0.0836;0.143
1.115000;0.0691;0.0637;0.0969;0.135
1.119000;0.0584;0.0574;0.0696;0.107
1.125000;0.0500;0.0414;0.0639;0.091
1.129000;0.0486;0.0566;0.0390;0.084
1.134000;0.0351;0.0408;0.0691;0.088
1.144000;0.0189;0.0319;0.0824;0.090
1.145000;0.0024;0.0612;0.0552;0.082
1.149000;-0.0002;0.0426;0.0638;0.077
1.153000;-0.0220;0.0430;0.0653;0.081
1.158000;-0.0534;0.0220;0.0429;0.072
1.163000;-0.0493;0.0058;0.0467;0.068
1.168000;-0.0074;-0.0270;0.0411;0.050
1.173000;0.0457;-0.0528;0.0068;0.070
1.178000;0.0723;-0.0714;0.0013;0.102
1.182000;0.0679;-0.0972;0.0101;0.119
1.187000;0.0760;-0.0848;0.0046;0.114
1.193000;0.0654;-0.0963;0.0064;0.117
1.197000;0.0456;-0.0863;-0.0013;0.098
1.203000;0.0117;-0.0977;-0.0067;0.099
1.207000;-0.0080;-0.1041;-0.0336;0.110
1.212000;-0.0275;-0.1077;-0.0367;0.117
1.216000;-0.0255;-0.0919;-0.0828;0.126
1.225000;-0.0470;-0.1045;-0.0811;0.140
1.230000;-0.0398;-0.1121;-0.0675;0.137
1.233000;-0.0516;-0.1214;-0.1012;0.166
1.237000;-0.0325;-0.1211;-0.1583;0.202
1.245000;-0.0256;-0.1443;-0.1154;0.187
1.246000;0.0025;-0.1838;-0.0966;0.208
1.250000;0.0108;-0.1590;-0.1041;0.190
1.256000;0.0138;-0.1440;-0.1447;0.205
1.261000;0.0256;-0.1243;-0.1424;0.191
1.266000;0.0249;-0.1261;-0.1994;0.237
1.271000;0.0380;-0.1468;-0.2347;0.279
1.275000;0.0395;-0.1491;-0.2378;0.283
1.280000;0.0556;-0.1298;-0.2290;0.269
1.285000;0.0261;-0.1415;-0.2584;0.296
1.290000;-0.0009;-0.1412;-0.2710;0.306
1.295000;-0.0210;-0.1599;-0.2765;0.320
1.299000;-0.0057;-0.1929;-0.3011;0.358
1.306000;0.0047;-0.2186;-0.3281;0.394
1.311000;-0.0038;-0.2408;-0.3315;0.410
1.315000;-0.0026;-0.2461;-0.3776;0.451
1.320000;0.0153;-0.2514;-0.4162;0.486
1.325000;0.0305;-0.2727;-0.4310;0.511
1.330000;0.0266;-0.2150;-0.3983;0.453
1.335000;0.0298;-0.2072;-0.4135;0.463
1.342000;0.0238;-0.2156;-0.4216;0.474
1.345000;-0.0104;-0.2117;-0.4202;0.471
1.349000;-0.0491;-0.2263;-0.4381;0.495
1.354000;-0.0782;-0.2521;-0.4203;0.496
1.364000;-0.0552;-0.2346;-0.4290;0.492
1.365000;-0.0491;-0.2383;-0.4353;0.499
1.368000;-0.0052;-0.2371;-0.4321;0.493
1.374000;-0.0000;-0.2287;-0.4077;0.467
1.378000;-0.0140;-0.2299;-0.3977;0.460
1.384000;-0.0138;-0.2312;-0.3854;0.450
1.389000;0.0003;-0.2565;-0.3850;0.463
1.393000;0.0048;-0.2626;-0.4012;0.480
1.398000;0.0068;-0.2592;-0.4458;0.516
1.404000;0.0183;-0.2652;-0.4758;0.545
1.408000;0.0295;-0.2590;-0.4842;0.550
1.413000;0.0169;-0.2622;-0.4713;0.540
1.417000;-0.0073;-0.2460;-0.4586;0.520
1.427000;-0.0410;-0.2464;-0.4556;0.520
1.431000;-0.0675;-0.2391;-0.4433;0.508
1.432000;-0.0657;-0.2268;-0.3957;0.461
1.439000;-0.0261;-0.1999;-0.3605;0.413
1.442000;-0.0273;-0.1773;-0.3305;0.376
1.453000;-0.0003;-0.1855;-0.3484;0.395
1.454000;-0.0000;-0.2028;-0.3639;0.417
1.462000;-0.0308;-0.2052;-0.4411;0.487
1.463000;-0.0354;-0.1881;-0.4728;0.510
1.467000;-0.0806;-0.1612;-0.4521;0.487
1.471000;-0.1068;-0.1458;-0.4722;0.506
1.477000;-0.1070;-0.1183;-0.4757;0.502
1.481000;-0.1103;-0.1356;-0.5173;0.546
1.486000;-0.1236;-0.1260;-0.5208;0.550
1.491000;-0.1067;-0.1518;-0.5102;0.543
1.496000;-0.0972;-0.1792;-0.5212;0.560
1.501000;-0.0761;-0.1935;-0.5325;0.572
1.505000;-0.0456;-0.1857;-0.4655;0.503
1.513000;-0.0653;-0.2078;-0.3923;0.449
1.515000;-0.0802;-0.1767;-0.3223;0.376
1.520000;-0.0927;-0.1427;-0.2507;0.303
1.526000;-0.0959;-0.1392;-0.2108;0.270
1.530000;-0.1306;-0.1162;-0.1975;0.264
1.535000;-0.1109;-0.1023;-0.2011;0.251
1.540000;-0.1230;-0.0998;-0.1693;0.232
1.545000;-0.1046;-0.0942;-0.1355;0.195
1.550000;-0.1370;-0.0666;-0.1427;0.209
1.555000;-0.1581;-0.0411;-0.1499;0.222
1.560000;-0.1991;-0.0221;-0.1692;0.262
1.565000;-0.1624;0.0446;-0.2407;0.294
1.569000;-0.1151;-0.0147;-0.0625;0.132
1.575000;-0.1279;0.0148;-0.3154;0.341
1.580000;-0.1790;0.0278;-0.2839;0.337
1.585000;-0.2087;0.0241;-0.2455;0.323
1.590000;-0.2291;0.0539;-0.2834;0.368
1.595000;-0.2518;0.0690;-0.2425;0.356
1.599000;-0.2507;0.0887;-0.2233;0.347
1.604000;-0.2350;0.1223;-0.1353;0.297
1.612000;-0.2239;0.1391;-0.0337;0.266
1.614000;-0.2025;0.1811;0.1077;0.292
1.619000;-0.1925;0.2483;0.2695;0.414
1.626000;-0.1469;0.3282;0.4806;0.600
1.628000;-0.0888;0.4454;0.6031;0.755
1.633000;-0.0275;0.5087;0.7616;0.916
1.638000;-0.0108;0.5728;0.8843;1.054
1.651000;-0.0096;0.6139;1.0263;1.196
1.652000;-0.0596;0.6273;1.1063;1.273
1.653000;-0.0936;0.6394;1.2010;1.364
1.661000;-0.1194;0.6385;1.2622;1.420
1.664000;-0.1447;0.6442;1.2567;1.420
1.668000;-0.1609;0.6453;1.2536;1.419
1.672000;-0.1803;0.6921;1.2742;1.461
1.678000;-0.1625;0.6963;1.2994;1.483
1.683000;-0.1866;0.8036;1.4008;1.626
1.687000;-0.2288;0.9852;1.4898;1.801
1.693000;-0.2391;1.0066;1.4831;1.808
1.698000;-0.2581;0.9830;1.4333;1.757
1.702000;-0.1517;0.9694;1.4456;1.747
1.707000;-0.0963;0.9491;1.5079;1.784
1.712000;-0.0104;0.9097;1.5439;1.792
1.716000;-0.0302;0.8223;1.4749;1.689
1.721000;-0.0573;0.7797;1.4372;1.636
1.727000;-0.1159;0.7342;1.4810;1.657
1.731000;-0.1867;0.7957;1.4962;1.705
1.735000;-0.3824;0.8082;1.4066;1.667
1.745000;-0.3920;0.8220;1.3534;1.631
1.746000;-0.2492;0.8587;1.2957;1.574
1.751000;-0.0925;0.9374;1.2288;1.548
1.757000;-0.0651;1.0364;1.1743;1.568
1.769000;-0.0803;1.0388;1.0844;1.504
1.769000;-0.1666;0.9638;0.9998;1.399
1.770000;-0.2663;0.8880;0.8845;1.281
1.778000;-0.3932;0.9762;0.9273;1.403
1.782000;-0.3851;0.8650;1.0515;1.415
1.785000;-0.2981;0.7624;1.0970;1.369
1.791000;-0.1813;0.6756;1.0925;1.297
1.796000;-0.0879;0.5877;1.0692;1.223
1.800000;-0.0317;0.4701;1.0010;1.106
1.805000;0.0380;0.3822;0.8927;0.972
1.810000;0.1673;0.2650;0.7705;0.832
1.815000;0.2799;0.1663;0.6631;0.739
1.820000;0.3595;0.0719;0.5681;0.676
1.827000;0.4399;-0.0110;0.4878;0.657
1.829000;0.4899;-0.0800;0.3744;0.622
1.834000;0.4157;-0.1807;0.2901;0.538
1.839000;0.4486;-0.2648;0.2443;0.575
1.844000;0.4908;-0.3017;0.2633;0.633
1.848000;0.5129;-0.3415;0.2776;0.676
1.853000;0.4666;-0.3846;0.2277;0.646
1.858000;0.3918;-0.4452;0.1448;0.610
1.864000;0.3170;-0.4374;0.0861;0.547
1.869000;0.2894;-0.4189;0.0232;0.510
1.873000;0.2734;-0.4060;-0.0393;0.491
1.880000;0.2399;-0.3847;-0.1206;0.469
1.883000;0.2466;-0.3975;-0.2587;0.535
1.888000;0.2361;-0.3937;-0.4132;0.618
1.893000;0.2135;-0.4616;-0.4933;0.709
1.897000;0.1815;-0.4811;-0.5303;0.739
1.903000;0.1881;-0.5382;-0.5411;0.786
1.909000;0.1922;-0.5348;-0.5448;0.787
1.913000;0.1627;-0.5450;-0.5463;0.789
1.917000;0.1375;-0.5492;-0.5863;0.815
1.923000;0.0711;-0.5307;-0.5788;0.789
1.927000;0.0156;-0.5017;-0.5548;0.748
1.933000;0.0071;-0.4718;-0.5073;0.693
1.937000;0.0314;-0.4196;-0.4338;0.604
1.945000;0.0220;-0.3623;-0.3965;0.538
1.946000;0.0293;-0.3215;-0.3521;0.478
1.951000;0.0223;-0.3143;-0.3602;0.479
1.957000;-0.0159;-0.3119;-0.3469;0.467
1.969000;-0.0351;-0.3288;-0.3622;0.490
1.970000;-0.0571;-0.3459;-0.3320;0.483
1.971000;-0.0607;-0.3488;-0.3019;0.465
1.979000;-0.0630;-0.3473;-0.2549;0.435
1.981000;-0.0546;-0.3463;-0.2892;0.454
1.986000;-0.0544;-0.3553;-0.3066;0.472
1.991000;-0.0192;-0.3935;-0.3429;0.522
1.995000;-0.0377;-0.3915;-0.3742;0.543
2.000000;-0.0068;-0.4210;-0.4412;0.610
2.006000;-0.0151;-0.4003;-0.4770;0.623
2.012000;0.0236;-0.4108;-0.5748;0.707
2.016000;0.0686;-0.4110;-0.6297;0.755
2.020000;0.1054;-0.4077;-0.7062;0.822
2.029000;0.0961;-0.3721;-0.7616;0.853
2.030000;0.1344;-0.3541;-0.8077;0.892
2.035000;0.1200;-0.3439;-0.8017;0.881
2.040000;0.1128;-0.3103;-0.7725;0.840
2.045000;0.1296;-0.2819;-0.6913;0.758
2.050000;0.1032;-0.2588;-0.5990;0.661
2.055000;0.1198;-0.2721;-0.4094;0.506
2.060000;0.1196;-0.2741;-0.2447;0.386
2.065000;0.1005;-0.2536;-0.0901;0.287
2.070000;0.1581;-0.2992;-0.0077;0.339
2.076000;0.1470;-0.3156;0.0673;0.355
2.079000;0.1769;-0.3510;0.1159;0.410
2.084000;0.1859;-0.4029;0.1977;0.486
2.088000;0.2121;-0.4140;0.2938;0.550
2.094000;0.2245;-0.4397;0.3778;0.622
2.099000;0.2657;-0.4919;0.4594;0.724
2.104000;0.3235;-0.5590;0.5195;0.829
2.109000;0.3523;-0.6000;0.5151;0.866
2.113000;0.3902;-0.6460;0.5012;0.906
2.119000;0.3989;-0.6325;0.4517;0.874
2.123000;0.3666;-0.7625;0.5121;0.989
2.128000;0.3634;-0.8043;0.5391;1.034
2.133000;0.4590;-0.8156;0.5304;1.076
2.138000;0.5002;-0.7943;0.4838;1.056
2.144000;0.5748;-0.7575;0.4568;1.055
2.148000;0.5770;-0.7671;0.4444;1.058
2.152000;0.4734;-0.7252;0.4824;0.991
2.158000;0.4145;-0.5818;0.5757;0.917
2.165000;0.3516;-0.3566;0.6691;0.836
2.167000;0.2364;-0.1717;0.6243;0.689
2.172000;0.0855;-0.0027;0.4749;0.483
2.179000;-0.0479;0.1384;0.3046;0.338
2.182000;-0.1251;0.2307;0.0273;0.264
2.187000;-0.1769;0.3413;-0.2946;0.484
2.192000;-0.2550;0.3707;-0.5825;0.736
2.200000;-0.3086;0.3815;-0.7745;0.917
2.201000;-0.3204;0.4196;-0.9354;1.074
2.206000;-0.3122;0.4136;-1.0868;1.204
2.211000;-0.2669;0.4092;-1.1046;1.208
2.216000;-0.2018;0.3491;-1.0726;1.146
2.221000;-0.1952;0.2786;-0.9743;1.032
2.226000;-0.1469;0.2311;-0.8694;0.912
2.230000;-0.1307;0.1921;-0.6648;0.704
2.236000;-0.1443;0.2284;-0.7235;0.772
2.241000;-0.2186;0.2798;-0.6105;0.706
2.247000;-0.2274;0.2795;-0.4048;0.542
2.250000;-0.2430;0.3062;-0.3549;0.528
2.255000;-0.2729;0.3141;-0.1882;0.457
2.261000;-0.2600;0.2956;-0.0170;0.394
2.265000;-0.2212;0.2650;0.0823;0.355
2.270000;-0.1637;0.2246;0.1600;0.321
2.276000;-0.0922;0.1910;0.1780;0.277
2.280000;-0.0689;0.1161;0.1198;0.181
2.285000;-0.0628;0.1128;0.0164;0.130
2.289000;-0.0521;0.1024;-0.0535;0.127
2.295000;-0.0848;0.1092;-0.0159;0.139
2.300000;-0.0577;0.1572;-0.0071;0.168
2.305000;-0.0352;0.1889;0.0277;0.194
2.310000;-0.0385;0.2139;0.0193;0.218
2.314000;-0.0435;0.2348;0.0251;0.240
2.319000;-0.0333;0.2323;0.0498;0.240
2.324000;-0.0197;0.2686;0.0241;0.270
2.328000;-0.0194;0.2477;0.0533;0.254
2.335000;-0.0276;0.2701;0.0443;0.275
2.339000;-0.0278;0.2568;0.0471;0.263
2.352000;-0.0298;0.2463;0.0379;0.251
2.353000;-0.0336;0.2455;0.0334;0.250
2.354000;-0.0226;0.2357;0.0742;0.248
2.358000;-0.0180;0.2500;0.1412;0.288
2.364000;-0.0127;0.2717;0.2796;0.390
2.368000;-0.0116;0.3122;0.4131;0.518
2.373000;-0.0079;0.3288;0.4986;0.597
2.379000;-0.0118;0.3688;0.5268;0.643
2.383000;-0.0546;0.3750;0.5454;0.664
2.388000;-0.0427;0.3758;0.5284;0.650
2.393000;-0.0572;0.3666;0.4996;0.622
2.397000;-0.0643;0.3760;0.4304;0.575
2.402000;-0.0831;0.4112;0.3495;0.546
2.407000;-0.0681;0.4197;0.2856;0.512
2.413000;-0.0742;0.3945;0.2433;0.469
2.417000;-0.0777;0.3978;0.1917;0.448
2.423000;-0.0737;0.3770;0.1736;0.422
2.429000;-0.0791;0.3753;0.1771;0.423
2.432000;-0.1062;0.3448;0.1759;0.401
2.437000;-0.1000;0.3286;0.2010;0.398
2.455000;-0.1155;0.3457;0.2070;0.419
2.456000;-0.0954;0.3362;0.2846;0.451
2.456000;-0.1018;0.3386;0.3216;0.478
2.457000;-0.0966;0.3837;0.3610;0.536
2.464000;-0.0818;0.3543;0.3766;0.523
2.466000;-0.0742;0.3555;0.3875;0.531
2.470000;-0.0665;0.3227;0.3866;0.508
2.477000;-0.0945;0.3396;0.3452;0.493
2.482000;-0.1251;0.3062;0.3207;0.461
2.485000;-0.1488;0.3012;0.2485;0.418
2.491000;-0.1101;0.2894;0.2299;0.386
2.495000;-0.1028;0.3298;0.2114;0.405
2.500000;-0.0864;0.3105;0.1694;0.364
2.505000;-0.0940;0.2887;0.1610;0.344
2.510000;-0.0731;0.2218;0.1361;0.270
2.515000;-0.0948;0.2194;0.1257;0.270
2.519000;-0.0853;0.1671;0.1297;0.228
2.525000;-0.0567;0.1673;0.1550;0.235
2.529000;-0.0231;0.1510;0.1659;0.226
2.535000;-0.0060;0.1276;0.1696;0.212
2.540000;-0.0126;0.1448;0.1851;0.235
2.545000;-0.0165;0.1144;0.2029;0.234
2.551000;-0.0443;0.1317;0.2016;0.245
2.554000;-0.0886;0.1085;0.1552;0.209
2.568000;-0.0927;0.1258;0.1258;0.201
2.569000;-0.1256;0.1144;0.0705;0.184
2.569000;-0.1090;0.1340;0.0560;0.182
2.574000;-0.1051;0.0919;0.0700;0.156
2.579000;-0.0897;0.1001;0.0697;0.151
2.583000;-0.0584;0.0585;0.0693;0.108
2.588000;-0.0275;0.0479;0.1520;0.162
2.593000;-0.0062;0.0541;0.2293;0.236
2.598000;-0.0421;0.0152;0.2394;0.244
2.603000;-0.0209;0.0048;0.2686;0.269
2.608000;-0.0548;-0.0391;0.2477;0.257
2.613000;-0.0915;-0.0711;0.1986;0.230
2.617000;-0.0672;-0.0908;0.1238;0.168
2.623000;-0.0251;-0.1100;0.0732;0.135
2.628000;0.0301;-0.1240;0.0513;0.138
2.632000;0.0679;-0.0993;0.0224;0.122
2.637000;0.0961;-0.0957;-0.0136;0.136
2.646000;0.1081;-0.0773;-0.0090;0.133
2.647000;0.1208;-0.0613;0.0429;0.142
2.652000;0.1438;-0.0713;0.1062;0.193
2.657000;0.1315;-0.0957;0.1264;0.206
2.668000;0.0788;-0.1226;0.1489;0.208
2.669000;0.0689;-0.1211;0.1285;0.190
2.671000;0.0585;-0.1341;0.1250;0.192
2.677000;0.0760;-0.1189;0.1026;0.175
2.682000;0.0596;-0.0971;0.1043;0.154
2.687000;0.0809;-0.0902;0.0324;0.125
2.691000;0.0778;-0.0693;-0.0174;0.106
2.697000;0.0959;-0.0392;-0.0668;0.123
2.701000;0.0995;-0.0712;-0.0872;0.150
2.706000;0.0959;-0.0553;-0.1099;0.156
2.711000;0.1515;-0.0630;-0.1230;0.205
2.716000;0.1639;-0.0561;-0.1077;0.204
2.721000;0.1835;-0.0347;-0.1067;0.215
2.726000;0.1866;-0.0487;-0.1225;0.228
2.730000;0.1615;-0.0696;-0.1666;0.242
2.737000;0.1702;-0.0570;-0.1700;0.247
2.740000;0.1625;-0.0612;-0.1782;0.249
2.752000;0.1697;-0.0770;-0.1839;0.262
2.752000;0.1582;-0.0572;-0.1825;0.248
2.755000;0.1684;-0.0826;-0.1430;0.236
2.761000;0.1647;-0.0961;-0.1039;0.217
2.765000;0.1615;-0.0860;-0.0792;0.199
2.770000;0.1281;-0.1000;-0.0784;0.180
2.775000;0.0886;-0.0857;-0.0490;0.133
2.780000;0.0785;-0.0812;-0.0388;0.119
2.784000;0.0619;-0.0792;-0.0357;0.107
2.789000;0.0506;-0.0727;-0.0302;0.094
2.794000;0.0159;-0.0709;-0.0035;0.073
2.799000;-0.0207;-0.0477;-0.0030;0.052
2.804000;-0.0265;-0.0339;0.0140;0.045
2.809000;-0.0182;-0.0272;0.0308;0.045
2.814000;-0.0152;0.0012;0.0330;0.036
2.819000;-0.0272;-0.0177;0.0067;0.033
2.824000;-0.0135;-0.0075;-0.0125;0.020
2.829000;-0.0194;-0.0039;-0.0174;0.026
2.834000;0.0099;0.0097;-0.0201;0.024
2.839000;0.0175;-0.0001;-0.0015;0.018
2.847000;0.0488;0.0070;0.0191;0.053
2.848000;0.0587;-0.0166;0.0040;0.061
2.856000;0.0402;-0.0518;0.0342;0.074
2.858000;0.0362;-0.0843;0.0426;0.101
2.872000;0.0561;-0.0669;0.0653;0.109
2.873000;0.0425;-0.0664;0.1045;0.131
2.873000;0.0240;-0.0901;0.0486;0.105
2.881000;0.0294;-0.0594;0.0739;0.099
2.885000;0.0231;-0.0507;0.0208;0.059
2.887000;0.0241;-0.0282;-0.0460;0.059
2.893000;0.0086;-0.0369;-0.0932;0.101
2.899000;-0.0020;-0.0505;-0.2325;0.238
2.901000;0.0158;0.0074;-0.2093;0.210
2.907000;-0.0329;-0.0515;-0.0178;0.064
2.912000;-0.0528;-0.0435;-0.1768;0.190
2.917000;-0.0344;-0.0213;-0.1849;0.189
2.922000;-0.0018;-0.0512;-0.1930;0.200
2.930000;0.0067;-0.0451;-0.2486;0.253
2.931000;0.0032;-0.0577;-0.3038;0.309
2.935000;0.0021;-0.0603;-0.3301;0.336
2.941000;-0.0204;-0.0339;-0.3090;0.311
2.949000;-0.0068;-0.0286;-0.2739;0.275
2.950000;-0.0264;-0.0298;-0.2464;0.250
2.956000;-0.0336;-0.0138;-0.2264;0.229
2.962000;-0.0050;0.0051;-0.1782;0.178
2.966000;-0.0049;-0.0136;-0.1021;0.103
2.971000;0.0263;-0.0361;-0.0601;0.075
2.976000;0.0221;-0.0509;0.0526;0.076
2.981000;0.0181;-0.0512;0.1336;0.144
2.985000;0.0544;-0.0869;0.2185;0.241
2.990000;0.0550;-0.0654;0.2981;0.310
2.995000;0.0508;-0.0588;0.3533;0.362
2.999000;0.0419;-0.0504;0.3799;0.385
3.005000;-0.0003;-0.0025;0.4040;0.404
3.011000;-0.0257;0.0181;0.3973;0.398
3.014000;-0.0039;0.0451;0.3670;0.370
3.019000;-0.0018;0.0831;0.3134;0.324
3.024000;-0.0025;0.0827;0.2627;0.275
3.029000;-0.0133;0.1392;0.2337;0.272
3.034000;0.0064;0.1428;0.2430;0.282
3.039000;0.0044;0.1820;0.2356;0.298
3.046000;-0.0142;0.1972;0.1998;0.281
3.049000;-0.0254;0.1812;0.1738;0.252
3.055000;0.0040;0.2270;0.1480;0.271
3.058000;0.0382;0.2629;0.1605;0.310
3.067000;0.0461;0.2820;0.1728;0.334
3.068000;0.0730;0.2891;0.1969;0.357
3.073000;0.0646;0.2766;0.2486;0.377
3.078000;0.0470;0.2996;0.3267;0.446
3.083000;0.0154;0.2746;0.3497;0.445
3.088000;-0.0230;0.3158;0.3992;0.510
3.093000;0.0011;0.3112;0.3699;0.483
3.097000;0.0015;0.3490;0.3887;0.522
3.102000;0.0141;0.3672;0.3860;0.533
3.108000;0.0171;0.4137;0.3977;0.574
3.113000;-0.0279;0.4385;0.3736;0.577
3.117000;-0.0708;0.4297;0.3591;0.564
3.122000;-0.0782;0.4135;0.3853;0.571
3.127000;-0.0979;0.3975;0.3828;0.560
3.132000;-0.0863;0.3814;0.4352;0.585
3.137000;-0.0171;0.3962;0.4542;0.603
3.142000;0.0069;0.4156;0.4828;0.637
3.148000;0.0165;0.4156;0.4899;0.643
3.152000;-0.0076;0.3938;0.4947;0.632
3.156000;-0.0678;0.3645;0.4876;0.613
3.170000;-0.0902;0.3039;0.4686;0.566
3.171000;-0.1225;0.3076;0.4330;0.545
3.172000;-0.0740;0.2416;0.4143;0.485
3.176000;-0.0640;0.2472;0.3789;0.457
3.181000;-0.0207;0.2335;0.3292;0.404
3.185000;0.0060;0.2008;0.2629;0.331
3.191000;-0.0174;0.1874;0.1656;0.251
3.196000;-0.0070;0.1531;0.0874;0.176
3.200000;-0.0228;0.0851;0.0210;0.091
3.205000;0.0067;0.0608;0.0096;0.062
3.210000;0.0361;0.0539;0.0029;0.065
3.215000;0.0558;0.0639;0.0009;0.085
3.221000;0.0090;0.0503;0.0155;0.053
3.226000;-0.0161;0.0487;-0.0364;0.063
3.233000;-0.0150;0.0377;-0.1022;0.110
3.235000;-0.0354;-0.0229;-0.1200;0.127
3.242000;-0.0584;-0.0807;-0.1591;0.188
3.267000;-0.0508;-0.1293;-0.1944;0.239
3.269000;-0.0457;-0.1539;-0.2154;0.269
3.270000;-0.0383;-0.1786;-0.1767;0.254
3.270000;-0.0212;-0.1842;-0.1618;0.246
3.270000;-0.0351;-0.2041;-0.1565;0.260
3.271000;-0.0464;-0.2147;-0.1296;0.255
3.274000;-0.0100;-0.2301;-0.1625;0.282
3.280000;0.0002;-0.2600;-0.1451;0.298
3.283000;-0.0016;-0.2613;-0.1158;0.286
3.289000;-0.0083;-0.2247;-0.1366;0.263
3.293000;-0.0604;-0.2287;-0.1430;0.276
3.298000;-0.0791;-0.2282;-0.1828;0.303
3.303000;-0.1054;-0.2110;-0.1939;0.305
3.308000;-0.0603;-0.1939;-0.2026;0.287
3.312000;-0.0685;-0.1838;-0.2472;0.316
3.318000;-0.0435;-0.1855;-0.2536;0.317
3.323000;-0.0113;-0.2012;-0.2719;0.338
3.331000;0.0045;-0.2144;-0.2521;0.331
3.333000;0.0136;-0.2297;-0.2371;0.330
3.337000;0.0400;-0.2376;-0.2269;0.331
3.342000;0.0145;-0.2359;-0.1738;0.293
3.366000;0.0228;-0.2365;-0.1780;0.297
3.367000;0.0293;-0.2300;-0.2109;0.313
3.367000;0.0071;-0.1708;-0.2199;0.279
3.368000;-0.0340;-0.1212;-0.2528;0.282
3.368000;-0.0629;-0.1076;-0.2425;0.273
3.372000;-0.0680;-0.0895;-0.2705;0.293
3.377000;-0.0589;-0.0664;-0.2746;0.289
3.382000;-0.0837;-0.0551;-0.2501;0.269
3.387000;-0.0659;-0.0556;-0.2376;0.253
3.392000;-0.0486;-0.0558;-0.1966;0.210
3.396000;-0.0245;-0.0654;-0.1868;0.199
3.401000;-0.0199;-0.0435;-0.1699;0.176
3.406000;-0.0108;-0.0763;-0.1364;0.157
3.411000;-0.0136;-0.0699;-0.1166;0.137
3.416000;-0.0069;-0.0562;-0.1136;0.127
3.422000;0.0024;-0.0378;-0.1154;0.121
3.426000;0.0096;-0.0523;-0.1244;0.135
3.430000;-0.0113;-0.0166;-0.1382;0.140
3.436000;-0.0437;-0.0378;-0.0997;0.115
3.441000;-0.0638;-0.0279;-0.0877;0.112
3.449000;-0.0813;-0.0176;-0.0877;0.121
3.450000;-0.0989;-0.0166;-0.0736;0.124
3.455000;-0.0928;-0.0391;-0.0479;0.111
3.461000;-0.0726;-0.0233;-0.0081;0.077
3.478000;-0.0668;-0.0336;0.0336;0.082
3.480000;-0.0707;-0.0055;0.0702;0.100
3.480000;-0.0817;-0.0228;0.0733;0.112
3.482000;-0.0621;-0.0350;0.1000;0.123
3.485000;-0.0668;-0.0612;0.1335;0.161
3.490000;-0.0551;-0.0635;0.1454;0.168
3.494000;-0.0511;-0.0490;0.1975;0.210
3.501000;-0.0546;-0.0158;0.1543;0.164
3.505000;-0.0634;0.0125;0.1540;0.167
3.509000;-0.0534;0.0001;0.1206;0.132
3.514000;-0.0415;0.0280;0.0757;0.091
3.519000;-0.0915;0.0604;0.0145;0.111
3.524000;-0.0749;0.0688;-0.0913;0.137
3.528000;-0.0636;0.0537;-0.1251;0.150
3.534000;-0.0649;0.0318;-0.2015;0.214
3.538000;-0.0122;0.0247;-0.2180;0.220
3.543000;-0.0055;0.0134;-0.2202;0.221
3.555000;0.0508;-0.0094;-0.1893;0.196
3.556000;0.0759;-0.0248;-0.1611;0.180
3.559000;0.0581;-0.0375;-0.1236;0.142
3.564000;0.1026;-0.0217;-0.0484;0.116
3.568000;0.1113;0.0106;0.1828;0.214
3.574000;0.1010;0.0353;0.1060;0.151
3.578000;0.0958;0.0879;0.1818;0.223
3.583000;0.1102;0.0919;0.3260;0.356
3.588000;0.1035;0.1354;0.3198;0.362
3.593000;0.0786;0.1517;0.3162;0.359
3.598000;0.0710;0.1861;0.3294;0.385
3.602000;0.0897;0.1697;0.3071;0.362
3.607000;0.0752;0.1790;0.2473;0.314
3.612000;0.0796;0.1665;0.1713;0.252
3.617000;0.0721;0.1538;0.1127;0.204
3.622000;0.0790;0.1224;0.0641;0.159
3.627000;0.0884;0.1389;0.0277;0.167
3.632000;0.1001;0.1531;-0.0109;0.183
3.636000;0.1050;0.1772;-0.0398;0.210
3.642000;0.0959;0.2109;-0.0684;0.242
3.653000;0.0614;0.1973;-0.1136;0.236
3.654000;0.0703;0.1723;-0.1110;0.217
3.658000;0.0415;0.1765;-0.0848;0.200
3.661000;0.0514;0.1761;-0.0470;0.189
3.667000;0.0358;0.1854;0.0379;0.193
3.670000;0.0585;0.1684;0.1102;0.210
3.676000;0.0622;0.1918;0.1607;0.258
3.681000;0.0186;0.1815;0.2392;0.301
3.685000;0.0063;0.1733;0.2390;0.295
3.691000;-0.0179;0.2099;0.2127;0.299
3.695000;-0.0562;0.2153;0.2270;0.318
3.701000;-0.0635;0.2392;0.1866;0.310
3.705000;-0.0635;0.2391;0.1277;0.278
3.710000;-0.0324;0.2650;0.0693;0.276
3.715000;-0.0138;0.2671;0.0303;0.269
3.720000;-0.0358;0.2479;-0.0274;0.252
3.725000;-0.0555;0.2670;-0.0348;0.275
3.732000;-0.0614;0.2552;-0.0422;0.266
3.737000;-0.0678;0.2674;-0.0424;0.279
3.740000;-0.0628;0.2770;-0.0451;0.288
3.744000;-0.0297;0.2699;-0.0691;0.280
3.756000;-0.0328;0.2481;-0.0643;0.258
3.757000;-0.0266;0.2265;-0.0785;0.241
3.761000;0.0034;0.1929;-0.0522;0.200
3.766000;0.0024;0.1949;-0.0497;0.201
3.768000;0.0183;0.2157;-0.0472;0.222
3.774000;0.0296;0.2384;-0.0755;0.252
3.779000;0.0291;0.2822;-0.0964;0.300
3.783000;0.0192;0.2662;-0.1409;0.302
3.788000;0.0002;0.2741;-0.1897;0.333
3.793000;0.0029;0.2726;-0.1693;0.321
3.798000;0.0082;0.2691;-0.1492;0.308
3.803000;-0.0102;0.2990;-0.1364;0.329
3.808000;-0.0001;0.3169;-0.1143;0.337
3.814000;0.0095;0.3439;-0.1302;0.368
3.818000;0.0257;0.3988;-0.1863;0.441
3.823000;0.0320;0.4339;-0.2751;0.515
3.828000;0.0995;0.4565;-0.4081;0.620
3.835000;0.1470;0.4689;-0.5755;0.757
3.837000;0.1460;0.5142;-0.7557;0.926
3.842000;0.1048;0.4818;-0.8766;1.006
3.849000;0.0775;0.4259;-1.0069;1.096
3.851000;0.0952;0.4186;-1.0656;1.149
3.857000;0.1509;0.4004;-1.0791;1.161
3.862000;0.1970;0.3784;-1.0547;1.138
3.872000;0.2195;0.3197;-0.9422;1.019
3.872000;0.1945;0.2652;-0.8016;0.866
3.876000;0.1726;0.2102;-0.5445;0.609
3.881000;0.1113;0.1432;-0.1928;0.265
3.886000;0.1231;0.0997;0.1773;0.238
3.891000;0.1341;0.0342;0.5153;0.534
3.897000;0.1683;-0.0226;0.8527;0.869
3.901000;0.1876;-0.0664;1.1464;1.164
3.906000;0.2131;-0.1121;1.4230;1.443
3.910000;0.2112;-0.1453;1.6323;1.652
3.918000;0.1912;-0.1935;1.8105;1.831
3.920000;0.1435;-0.1567;1.8073;1.820
3.925000;0.1422;-0.1625;1.7089;1.723
3.932000;0.2111;-0.1563;1.5516;1.574
3.937000;0.1971;-0.1526;1.2422;1.267
3.940000;0.1865;-0.1510;0.8430;0.877
3.945000;0.1574;-0.1010;0.4280;0.467
3.952000;0.1141;-0.0569;0.1142;0.171
3.956000;0.0534;-0.0178;-0.1801;0.189
3.959000;0.0270;0.0046;-0.3785;0.379
3.965000;0.0393;0.0391;-0.4668;0.470
3.970000;0.1020;0.0499;-0.4452;0.459
3.974000;0.1457;0.0701;-0.3927;0.425
3.979000;0.1900;0.0422;-0.2494;0.316
3.984000;0.2186;0.0308;-0.1589;0.272
3.990000;0.2269;0.0092;-0.0349;0.230
3.994000;0.2104;0.0107;-0.0089;0.211
4.000000;0.1884;0.0235;-0.0617;0.200
4.004000;0.1539;0.0571;-0.1788;0.243
4.009000;0.1573;0.0834;-0.3651;0.406
4.015000;0.1845;0.0954;-0.5774;0.614
4.018000;0.2385;0.0719;-0.7489;0.789
4.024000;0.2691;0.1329;-0.8941;0.943
4.028000;0.3120;0.0990;-1.0010;1.053
4.033000;0.3289;0.0685;-1.0913;1.142
4.039000;0.2909;0.1012;-1.1984;1.237
4.044000;0.2799;0.1037;-1.2411;1.276
4.051000;0.2576;0.1148;-1.2242;1.256
4.054000;0.2498;0.1198;-1.1312;1.165
4.057000;0.1965;0.1072;-1.0314;1.055
4.063000;0.0473;0.1270;-0.9632;0.973
4.087000;-0.1209;0.1821;-0.9122;0.938
4.089000;-0.1954;0.2912;-0.8568;0.926
4.090000;-0.2695;0.4022;-0.8473;0.976
4.090000;-0.3479;0.5340;-0.8693;1.078
4.090000;-0.4521;0.6297;-0.9706;1.242
4.092000;-0.5240;0.7039;-1.0292;1.353
4.100000;-0.5823;0.7882;-1.0452;1.433
4.102000;-0.6148;0.8656;-0.9757;1.442
4.107000;-0.5648;0.8096;-0.7537;1.242
4.111000;-0.5217;0.7365;-0.4510;1.009
4.117000;-0.5370;0.7014;0.0182;0.884
4.122000;-0.6340;0.7913;0.3576;1.075
4.127000;-0.7326;0.8619;0.4742;1.227
4.132000;-0.8165;0.7949;0.4260;1.217
4.136000;-0.8278;0.7243;0.3182;1.145
4.141000;-0.7249;0.6567;0.0986;0.983
4.146000;-0.5981;0.5828;-0.1468;0.848
4.151000;-0.3724;0.5126;-0.5135;0.816
4.155000;-0.1327;0.3445;-0.8653;0.941
4.161000;0.0243;0.2039;-1.3146;1.331
4.180000;0.2454;0.0284;-1.6084;1.627
4.182000;0.4198;-0.0758;-1.7229;1.775
4.182000;0.5160;-0.1077;-1.6156;1.699
4.182000;0.6998;-0.0843;-1.3916;1.560
4.188000;0.7819;-0.1272;-0.9459;1.234
4.190000;0.6312;-0.1153;-0.1760;0.665
4.195000;0.6980;-0.3286;0.4996;0.919
4.201000;0.5146;-0.7519;1.0000;1.353
4.205000;0.3981;-0.8279;1.3012;1.593
4.210000;0.3214;-0.7277;1.3343;1.553
4.216000;0.6967;-0.8240;1.4149;1.779
4.220000;0.1921;-0.5800;1.1870;1.335
4.225000;0.1631;-0.2156;0.8758;0.917
4.230000;0.2322;0.2539;0.1900;0.393
4.237000;0.3400;0.5283;-0.3799;0.734
4.242000;0.0729;1.1787;-0.7215;1.384
4.244000;-0.0442;1.3998;-1.0381;1.743
4.251000;-0.4061;1.5850;-0.8302;1.835
4.257000;-0.6176;1.6554;-0.5645;1.855
4.258000;-0.6749;1.5944;-0.1453;1.737
4.263000;-0.5861;1.5306;0.3698;1.680
4.285000;-0.4085;1.5884;1.1790;2.020
4.286000;-0.4466;1.5850;1.5077;2.233
4.287000;-0.5995;1.6067;1.8462;2.520
4.287000;-0.6681;1.8344;2.7443;3.368
4.288000;-0.8812;2.0446;3.2476;3.937
4.295000;-0.8243;2.0914;3.3901;4.068
4.299000;-1.0019;1.9664;3.2465;3.926
4.302000;-1.2059;1.7170;3.0800;3.727
4.308000;-1.4838;0.9866;2.5416;3.104
4.313000;-1.3320;0.0602;2.0354;2.433
4.320000;-0.7125;-0.8854;1.9980;2.299
4.322000;0.1712;-2.4154;1.8983;3.077
4.327000;1.1035;-5.3265;2.2484;5.886
4.334000;2.7955;-6.9591;1.4446;7.637
4.337000;3.0131;-5.4893;-0.2104;6.265
4.342000;0.9205;-2.3045;-1.3155;2.809
4.347000;-1.3698;0.3139;-1.6093;2.136
4.367000;-2.4183;1.7208;-1.5594;3.353
4.368000;-2.1783;1.9624;-0.9951;3.096
4.369000;-1.6573;1.6499;-0.2394;2.351
4.369000;-1.3584;1.4912;0.8562;2.191
4.371000;-0.9111;1.2170;1.7139;2.291
4.376000;-0.5339;0.9335;2.0524;2.317
4.382000;-0.3728;0.7537;1.8319;2.016
4.388000;-0.4189;0.7023;1.3085;1.543
4.390000;-0.5968;0.7893;0.7477;1.240
4.396000;-0.7009;0.8471;0.3832;1.164
4.400000;-0.7855;0.9043;0.2005;1.214
4.405000;-0.8620;0.8386;0.1776;1.216
4.410000;-0.9554;0.7338;0.2786;1.236
4.416000;-1.0868;0.6142;0.4677;1.333
4.420000;-1.1716;0.6082;0.6995;1.494
4.425000;-1.1196;0.6131;0.8879;1.555
4.430000;-1.0099;0.6781;1.0187;1.587
4.435000;-0.8478;0.7695;1.2617;1.704
4.440000;-0.7341;0.8646;1.5142;1.892
4.445000;-0.6242;0.9413;1.6663;2.013
4.453000;-0.5319;1.0008;1.6657;2.015
4.455000;-0.4959;1.1124;1.6035;2.014
4.459000;-0.3882;1.0056;1.4057;1.771
4.465000;-0.2401;0.8296;1.1297;1.422
4.487000;-0.1323;0.6872;0.8570;1.106
4.489000;-0.0287;0.6320;0.6567;0.912
4.490000;0.0901;0.6111;0.4810;0.783
4.490000;0.1169;0.6635;0.3248;0.748
4.490000;0.1722;0.8036;0.1978;0.845
4.493000;0.5198;1.1650;0.1453;1.284
4.499000;0.3968;1.0252;0.1337;1.107
4.503000;0.2438;0.8508;0.1343;0.895
4.509000;0.0050;0.8036;0.0183;0.804
4.514000;-0.0653;0.6998;0.0032;0.703
4.518000;-0.0164;0.4406;0.0174;0.441
4.524000;-0.0895;0.1919;-0.1161;0.241
4.528000;-0.2579;0.0684;-0.4112;0.490
4.536000;-0.4341;0.1030;-0.6698;0.805
4.537000;-0.5421;0.0758;-0.9088;1.061
4.542000;-0.6163;0.1127;-1.1163;1.280
4.547000;-0.7103;0.1922;-1.3166;1.508
4.565000;-0.7843;0.2673;-1.4547;1.674
4.566000;-0.8259;0.3069;-1.6194;1.844
4.567000;-0.9118;0.3213;-1.8178;2.059
4.568000;-0.8805;0.3009;-2.0023;2.208
4.572000;-0.7320;0.3590;-1.9770;2.139
4.576000;-0.5520;0.4903;-1.8737;2.014
4.582000;-0.3502;0.6232;-1.7475;1.888
4.586000;-0.1723;0.7447;-1.5600;1.737
4.592000;0.0083;0.8762;-1.4451;1.690
4.596000;0.1489;0.9977;-1.3355;1.674
4.601000;0.2694;1.0585;-1.2432;1.655
4.606000;0.3391;1.0392;-1.2349;1.649
4.611000;0.3005;1.0141;-1.2961;1.673
4.617000;0.1537;0.9878;-1.4364;1.750
4.622000;0.0200;0.9274;-1.6318;1.877
4.626000;-0.1722;0.8092;-1.8441;2.021
4.632000;-0.3272;0.7534;-1.9325;2.100
4.636000;-0.3400;0.8439;-2.0141;2.210
4.641000;-0.3590;0.9585;-2.0269;2.271
4.645000;-0.3775;1.0450;-2.0571;2.338
4.653000;-0.4531;1.0433;-2.0926;2.382
4.655000;-0.5515;1.0448;-2.2004;2.498
4.660000;-0.5872;1.0016;-2.1606;2.453
4.665000;-0.6679;0.9854;-2.1309;2.441
4.693000;-0.6693;0.9824;-2.0422;2.363
4.695000;-0.7144;0.9991;-1.8969;2.260
4.696000;-0.7506;0.9804;-1.6686;2.076
4.696000;-0.7572;0.9376;-1.3214;1.789
4.696000;-0.7184;0.9033;-0.8555;1.437
4.697000;-0.5901;0.9002;-0.2921;1.115
4.700000;-0.4763;0.8937;0.0891;1.017
4.704000;-0.3223;0.8703;0.3172;0.981
4.709000;-0.2326;0.8407;0.6199;1.070
4.714000;-0.1229;0.8161;0.8894;1.213
4.719000;-0.0236;0.7746;1.1333;1.373
4.724000;0.0655;0.7394;1.2416;1.447
4.730000;0.1065;0.7157;1.2384;1.434
4.736000;0.0751;0.6535;1.1429;1.319
4.740000;-0.0084;0.6512;0.9791;1.176
4.744000;-0.1056;0.5854;0.7587;0.964
4.748000;-0.1878;0.5671;0.4915;0.774
4.770000;-0.2833;0.5017;0.2678;0.635
4.770000;-0.3447;0.4546;0.0089;0.571
4.771000;-0.3830;0.4077;-0.2283;0.604
4.771000;-0.3724;0.4048;-0.4127;0.688
4.773000;-0.3573;0.3969;-0.4873;0.723
4.777000;-0.3307;0.3938;-0.4810;0.704
4.783000;-0.2844;0.3960;-0.3939;0.627
4.790000;-0.2740;0.3845;-0.2597;0.539
4.792000;-0.1937;0.3689;-0.1286;0.436
4.797000;-0.1510;0.3798;0.0425;0.411
4.802000;-0.1025;0.3928;0.2107;0.457
4.808000;-0.0532;0.3979;0.3377;0.525
4.812000;-0.0365;0.4282;0.4979;0.658
4.817000;-0.0073;0.4306;0.5645;0.710
4.822000;-0.0036;0.4455;0.6812;0.814
4.826000;-0.0066;0.4776;0.8144;0.944
4.832000;-0.0143;0.5141;0.9427;1.074
4.837000;-0.0558;0.5503;1.1046;1.235
4.842000;-0.0886;0.6094;1.3022;1.440
4.847000;-0.0941;0.6698;1.6218;1.757
4.855000;-0.0581;0.7447;1.8889;2.031
4.856000;-0.0264;0.8291;2.0630;2.224
4.861000;-0.0267;0.9198;2.2209;2.404
4.867000;-0.0396;0.9949;2.2646;2.474
4.906000;0.0363;1.0686;2.2804;2.519
4.908000;0.1120;1.1002;2.2014;2.464
4.908000;0.2070;1.1091;2.0373;2.329
4.908000;0.2971;1.1389;1.8549;2.197
4.909000;0.3398;1.1356;1.6326;2.018
4.909000;0.4039;1.1527;1.4587;1.903
4.910000;0.4375;1.0978;1.0868;1.606
4.910000;0.5101;1.0648;1.2603;1.727
4.911000;0.5912;1.0568;1.2088;1.711
4.915000;0.6622;1.0618;1.1356;1.690
4.920000;0.7574;1.0702;1.2557;1.815
4.925000;0.8171;1.0722;1.3468;1.906
4.930000;0.8850;1.0318;1.4184;1.965
4.936000;0.9065;0.9129;1.4347;1.927
4.942000;0.9133;0.7635;1.3765;1.820
4.944000;0.8938;0.5954;1.2967;1.684
4.949000;0.8241;0.3873;1.1664;1.480
4.975000;0.7714;0.2157;1.0502;1.321
4.976000;0.7280;0.0305;0.8718;1.136
4.976000;0.6699;-0.1683;0.7410;1.013
4.977000;0.5841;-0.3495;0.6293;0.927
4.977000;0.5228;-0.5205;0.5008;0.892
4.978000;0.4681;-0.6764;0.4178;0.923
4.985000;0.4225;-0.8464;0.3277;1.001
4.988000;0.3467;-0.9585;0.2759;1.056
4.994000;0.2646;-1.0731;0.1861;1.121
4.998000;0.2159;-1.1763;0.0871;1.199
5.003000;0.1650;-1.1797;-0.0186;1.191
5.008000;0.1116;-1.1814;-0.1789;1.200
5.013000;0.0869;-1.1554;-0.3387;1.207
5.018000;0.0550;-1.1446;-0.5194;1.258
5.022000;0.0952;-1.0820;-0.6758;1.279
5.028000;0.1330;-1.0267;-0.9011;1.372
5.032000;0.1236;-0.9595;-1.0806;1.450
5.038000;0.0784;-0.9082;-1.3054;1.592
5.043000;0.0310;-0.8822;-1.5491;1.783
5.047000;-0.0144;-0.8614;-1.7284;1.931
5.055000;-0.1102;-0.7761;-1.8698;2.027
5.057000;-0.2359;-0.7669;-1.9804;2.137
5.061000;-0.3749;-0.7333;-1.9722;2.137
5.066000;-0.5281;-0.6369;-1.9408;2.110
5.104000;-0.6433;-0.5948;-1.7380;1.946
5.105000;-0.7358;-0.5098;-1.4764;1.727
5.105000;-0.8538;-0.4684;-1.2324;1.571
5.106000;-0.9402;-0.4499;-0.9579;1.416
5.106000;-0.9973;-0.4789;-0.6887;1.303
5.107000;-1.0491;-0.5202;-0.4103;1.241
5.107000;-1.0383;-0.5671;-0.1511;1.193
5.109000;-0.9409;-0.6131;0.0626;1.125
5.110000;-0.8329;-0.6561;0.2357;1.086
5.115000;-0.6587;-0.6820;0.3375;1.006
5.121000;-0.4465;-0.6744;0.4038;0.904
5.130000;-0.2574;-0.6575;0.4134;0.818
5.131000;-0.0188;-0.6096;0.3279;0.692
5.139000;0.1605;-0.5471;0.2241;0.613
5.141000;0.3551;-0.4652;0.0993;0.594
5.145000;0.5704;-0.3773;-0.0536;0.686
5.151000;0.8063;-0.3168;-0.1367;0.877
5.175000;0.9935;-0.2834;-0.2506;1.063
5.175000;1.1157;-0.1766;-0.3546;1.184
5.176000;1.1926;-0.1107;-0.4847;1.292
5.176000;1.2627;-0.0264;-0.6144;1.404
5.177000;1.3140;0.0459;-0.7606;1.519
5.180000;1.3464;0.1396;-0.9473;1.652
5.185000;1.3837;0.1551;-1.1411;1.800
5.188000;1.4043;0.1764;-1.2991;1.921
5.194000;1.4082;0.2159;-1.4691;2.046
5.199000;1.3522;0.2211;-1.5939;2.102
5.205000;1.2937;0.2545;-1.6760;2.132
5.209000;1.2182;0.2659;-1.7250;2.129
5.214000;1.1371;0.2986;-1.6144;1.997
5.219000;1.0231;0.3615;-1.3872;1.761
5.224000;0.8944;0.4087;-1.1701;1.528
5.229000;0.7197;0.4586;-0.9892;1.306
5.234000;0.5150;0.5128;-0.8227;1.098
5.238000;0.3762;0.4628;-0.8043;1.001
5.244000;0.2959;0.4279;-0.7997;0.954
5.248000;0.1543;0.3696;-0.8473;0.937
5.256000;0.0654;0.3024;-0.9158;0.967
5.257000;0.0408;0.2456;-1.0413;1.071
5.265000;0.0488;0.1877;-1.1090;1.126
5.267000;0.0751;0.1555;-1.2051;1.217
5.298000;0.1392;0.1300;-1.3010;1.315
5.300000;0.2201;0.1547;-1.3443;1.371
5.300000;0.3044;0.1584;-1.4427;1.483
5.300000;0.4119;0.1817;-1.5123;1.578
5.301000;0.4812;0.2179;-1.5941;1.679
5.301000;0.5581;0.3080;-1.6164;1.738
5.302000;0.5254;0.3541;-1.6367;1.755
5.306000;0.4884;0.4158;-1.6215;1.744
5.312000;0.4447;0.4887;-1.6139;1.744
5.317000;0.4038;0.5413;-1.5493;1.690
5.323000;0.3655;0.6241;-1.4638;1.633
5.327000;0.3537;0.6699;-1.3859;1.579
5.332000;0.3423;0.7263;-1.3203;1.545
5.339000;0.3478;0.7406;-1.2432;1.488
5.344000;0.3631;0.7438;-1.1663;1.430
5.346000;0.3499;0.7765;-1.0970;1.389
5.351000;0.3537;0.8097;-1.0542;1.376
5.369000;0.3938;0.8627;-1.0045;1.381
5.370000;0.4465;0.8853;-0.8929;1.334
5.370000;0.4789;0.9537;-0.7265;1.291
5.371000;0.5484;0.9888;-0.5844;1.273
5.377000;0.6096;1.0574;-0.4471;1.300
5.380000;0.6120;1.1111;-0.3409;1.313
5.385000;0.6463;1.1786;-0.2802;1.373
5.390000;0.6573;1.3050;-0.0759;1.463
5.395000;0.6567;1.3563;0.0639;1.508
5.400000;0.6606;1.4253;0.1799;1.581
5.405000;0.6523;1.4810;0.3177;1.649
5.410000;0.6627;1.4800;0.4295;1.677
5.414000;0.6534;1.5154;0.5009;1.725
5.421000;0.6055;1.5012;0.5752;1.718
5.424000;0.5071;1.4972;0.5853;1.686
5.430000;0.4133;1.4629;0.5959;1.633
5.434000;0.2857;1.4582;0.5567;1.587
5.439000;0.2202;1.4549;0.5489;1.571
5.444000;0.1927;1.4554;0.6250;1.596
5.449000;0.1887;1.4554;0.7537;1.650
5.456000;0.2102;1.4309;0.8180;1.662
5.459000;0.2647;1.3608;0.9085;1.657
5.463000;0.3187;1.2615;0.9919;1.636
5.469000;0.4185;1.1669;1.0824;1.646
5.497000;0.4877;1.0387;1.1921;1.655
5.498000;0.5884;0.9225;1.2754;1.680
5.498000;0.6014;0.8590;1.3586;1.716
5.499000;0.4932;0.8317;1.4082;1.708
5.499000;0.2977;0.8167;1.3884;1.638
5.500000;0.0654;0.7451;1.3708;1.562
5.504000;-0.2272;0.7008;1.3865;1.570
5.507000;-0.5080;0.6361;1.4115;1.629
5.512000;-0.7389;0.6155;1.4003;1.699
5.517000;-0.8964;0.5628;1.3865;1.744
5.523000;-1.0022;0.4802;1.3939;1.783
5.527000;-1.0401;0.3965;1.3435;1.745
5.532000;-0.9483;0.2902;1.3049;1.639
5.538000;-0.8879;0.2355;1.2827;1.578
5.542000;-0.7966;0.1680;1.2744;1.512
5.546000;-0.6701;0.0921;1.2873;1.454
5.579000;-0.4942;0.0104;1.2688;1.362
5.580000;-0.3055;-0.0866;1.3431;1.380
5.580000;-0.1159;-0.1750;1.4909;1.506
5.581000;0.0480;-0.2864;1.6406;1.666
5.581000;0.1742;-0.4805;1.9166;1.984
5.582000;0.2456;-0.6192;1.8790;1.994
5.585000;0.2078;-0.7913;2.0422;2.200
5.589000;0.0633;-0.9871;2.1166;2.336
5.591000;-0.1087;-1.1827;2.1862;2.488
5.597000;-0.3725;-1.3187;2.2271;2.615
5.601000;-0.6677;-1.4387;2.2323;2.738
5.608000;-0.9412;-1.5122;2.2332;2.857
5.610000;-1.1683;-1.5544;2.1272;2.882
5.615000;-1.3559;-1.5632;1.9337;2.832
5.621000;-1.4707;-1.5993;1.6841;2.749
5.625000;-1.4889;-1.6122;1.2948;2.548
5.629000;-1.3701;-1.6017;0.8376;2.268
5.635000;-1.1864;-1.5933;0.4126;2.029
5.640000;-0.9548;-1.5505;0.0244;1.821
5.645000;-0.7690;-1.4528;-0.4325;1.700
5.649000;-0.5526;-1.3572;-0.8125;1.676
5.677000;-0.3227;-1.1621;-1.1089;1.638
5.678000;-0.0703;-0.9963;-1.3410;1.672
5.678000;0.1422;-0.7732;-1.4518;1.651
5.679000;0.3433;-0.5808;-1.5347;1.676
5.679000;0.5138;-0.3639;-1.6090;1.728
5.680000;0.5796;-0.2394;-1.6270;1.744
5.684000;0.6294;-0.1613;-1.5816;1.710
5.690000;0.6634;-0.1078;-1.4421;1.591
5.694000;0.6576;-0.1173;-1.2346;1.404
5.699000;0.5907;-0.2087;-1.0000;1.180
5.704000;0.4394;-0.3080;-0.6879;0.872
5.709000;0.3115;-0.4754;-0.3318;0.658
5.714000;0.1316;-0.6518;-0.0055;0.665
5.719000;0.0003;-0.8402;0.2793;0.885
5.725000;-0.1460;-1.0152;0.5015;1.142
5.728000;-0.3238;-1.1531;0.7232;1.399
5.733000;-0.4487;-1.2907;0.8947;1.633
5.739000;-0.5682;-1.3447;1.0424;1.794
5.742000;-0.6847;-1.4143;1.1019;1.919
5.747000;-0.7792;-1.4373;1.1285;1.987
5.752000;-0.7778;-1.4484;1.0986;1.977
5.785000;-0.7168;-1.4356;0.9738;1.877
5.786000;-0.5967;-1.4020;0.7713;1.708
5.786000;-0.3915;-1.4146;0.5269;1.559
5.787000;-0.1897;-1.3611;0.2454;1.396
5.787000;-0.0058;-1.3347;-0.0634;1.336
5.787000;0.1790;-1.3233;-0.3281;1.375
5.788000;0.3262;-1.2237;-0.6156;1.408
5.791000;0.4302;-1.1572;-0.8664;1.508
5.797000;0.5142;-1.0540;-1.1142;1.618
5.801000;0.5704;-0.9064;-1.3567;1.728
5.809000;0.5533;-0.8117;-1.5558;1.840
5.811000;0.4625;-0.6619;-1.7454;1.923
5.816000;0.3654;-0.5185;-1.9015;2.004
5.821000;0.2572;-0.4006;-1.9931;2.049
5.826000;0.1598;-0.2887;-1.9752;2.003
5.831000;0.0713;-0.2045;-1.9169;1.929
5.836000;0.0368;-0.1789;-1.8733;1.882
5.841000;0.0113;-0.2123;-1.7536;1.766
5.845000;-0.0408;-0.2379;-1.6819;1.699
5.850000;-0.0403;-0.2750;-1.5865;1.611
5.878000;-0.0421;-0.3358;-1.4650;1.504
5.880000;-0.0532;-0.3656;-1.3531;1.403
5.880000;-0.0522;-0.3599;-1.2293;1.282
5.881000;-0.0103;-0.3406;-1.1820;1.230
5.881000;0.0028;-0.3246;-1.1488;1.194
5.881000;0.0471;-0.2567;-1.0677;1.099
5.885000;0.0840;-0.1947;-1.0438;1.065
5.890000;0.1179;-0.1528;-0.9576;0.977
5.895000;0.1606;-0.0856;-0.9383;0.956
5.900000;0.2185;-0.0338;-0.8758;0.903
5.904000;0.2077;0.0338;-0.8253;0.852
5.909000;0.1827;0.0692;-0.7221;0.748
5.914000;0.1170;0.1444;-0.6692;0.695
5.919000;0.0414;0.1996;-0.5733;0.608
5.925000;-0.0105;0.2706;-0.4727;0.545
5.930000;-0.0719;0.2809;-0.3816;0.479
5.936000;-0.1328;0.3404;-0.3049;0.476
5.939000;-0.1331;0.3129;-0.2807;0.441
5.943000;-0.1653;0.2990;-0.2826;0.443
5.948000;-0.1765;0.2796;-0.3345;0.470
5.957000;-0.2019;0.3103;-0.3528;0.511
5.960000;-0.2295;0.3433;-0.4165;0.587
5.962000;-0.2947;0.3915;-0.4109;0.639
5.968000;-0.3088;0.4334;-0.3768;0.652
5.998000;-0.2933;0.5025;-0.3214;0.665
5.998000;-0.2267;0.5322;-0.2377;0.625
5.999000;-0.1998;0.5176;-0.1662;0.579
5.999000;-0.1797;0.5213;-0.0545;0.554
6.000000;-0.2043;0.5287;0.0855;0.573
6.000000;-0.2454;0.5017;0.2154;0.599
6.002000;-0.2959;0.5137;0.3737;0.701
6.008000;-0.2867;0.5194;0.5340;0.798
6.012000;-0.2703;0.5541;0.7395;0.963
6.018000;-0.2946;0.5171;0.9519;1.123
6.027000;-0.2712;0.4846;1.1593;1.285
6.028000;-0.2431;0.4634;1.3308;1.430
6.032000;-0.2241;0.4506;1.4427;1.528
6.040000;-0.2573;0.4556;1.4830;1.573
6.041000;-0.2967;0.4687;1.4639;1.565
6.046000;-0.3351;0.4827;1.4666;1.580
6.051000;-0.3888;0.4908;1.4291;1.560
6.078000;-0.3930;0.5050;1.4229;1.560
6.078000;-0.4791;0.5278;1.3691;1.544
6.079000;-0.5035;0.5112;1.3491;1.528
6.079000;-0.5617;0.5344;1.2362;1.459
6.080000;-0.6082;0.5441;1.0808;1.354
6.081000;-0.6743;0.5695;0.9329;1.284
6.085000;-0.7529;0.5912;0.7283;1.203
6.091000;-0.7778;0.6381;0.5409;1.142
6.096000;-0.8116;0.6263;0.3468;1.082
6.100000;-0.8260;0.6566;0.1748;1.070
6.106000;-0.8236;0.6738;-0.0183;1.064
6.110000;-0.7711;0.6636;-0.1463;1.028
6.115000;-0.6904;0.6355;-0.3264;0.994
6.120000;-0.6274;0.6285;-0.4966;1.017
6.124000;-0.5489;0.6280;-0.6378;1.050
6.129000;-0.4842;0.6225;-0.7596;1.095
6.135000;-0.4120;0.6074;-0.8262;1.105
6.140000;-0.3427;0.5812;-0.8428;1.080
6.145000;-0.2817;0.5702;-0.7880;1.013
6.149000;-0.2341;0.5271;-0.6738;0.887
6.206000;-0.2049;0.4997;-0.4955;0.733
6.207000;-0.2126;0.4737;-0.2462;0.575
6.208000;-0.1449;0.4441;0.0791;0.474
6.208000;-0.0564;0.3578;0.3823;0.527
6.208000;0.0340;0.2124;0.6898;0.723
6.209000;0.0961;0.0389;0.9539;0.960
6.209000;0.1590;-0.1487;1.1557;1.176
6.210000;0.2117;-0.3482;1.3549;1.415
6.211000;0.1635;-0.5644;1.5398;1.648
6.212000;0.1541;-0.7641;1.6696;1.843
6.213000;0.1237;-0.9117;1.7782;2.002
6.214000;0.0588;-1.0767;1.7673;2.070
6.214000;-0.0621;-1.2017;1.6469;2.040
6.217000;-0.1471;-1.3007;1.4837;1.979
6.223000;-0.2442;-1.3087;1.2778;1.845
6.228000;-0.2933;-1.3157;1.0526;1.710
6.233000;-0.2803;-1.2610;1.1953;1.760
6.240000;-0.1977;-1.1868;0.6296;1.358
6.242000;-0.1057;-1.1711;0.6515;1.344
6.247000;0.0204;-1.1772;0.6792;1.359
6.252000;0.1472;-1.2286;0.6480;1.397
6.280000;0.2274;-1.3133;0.7924;1.551
6.281000;0.2160;-1.3502;1.0762;1.740
6.281000;0.1345;-1.4239;1.4230;2.018
6.281000;-0.0002;-1.4994;1.7352;2.293
6.282000;-0.1481;-1.5831;1.9772;2.537
6.282000;-0.3049;-1.6640;2.2595;2.823
6.287000;-0.4672;-1.7626;2.4128;3.024
6.291000;-0.6119;-1.8268;2.5042;3.159
6.296000;-0.7282;-1.8483;2.5675;3.246
6.301000;-0.7686;-1.8324;2.5194;3.209
6.306000;-0.7932;-1.8177;2.4197;3.129
6.311000;-0.7589;-1.7687;2.2709;2.977
6.315000;-0.6587;-1.6972;2.0420;2.736
6.322000;-0.5428;-1.6725;1.6972;2.444
6.326000;-0.3949;-1.5842;1.2868;2.079
6.331000;-0.2319;-1.4887;0.9109;1.761
6.335000;-0.1165;-1.4064;0.5573;1.517
6.340000;0.0082;-1.3128;0.2019;1.328
6.345000;0.0727;-1.2497;-0.1484;1.261
6.350000;0.0987;-1.1588;-0.4102;1.233
6.357000;0.0986;-1.0467;-0.5550;1.189
6.360000;0.0946;-0.9774;-0.6095;1.156
6.365000;0.0392;-0.8986;-0.6023;1.083
6.370000;-0.0217;-0.8201;-0.4905;0.956
6.410000;-0.0610;-0.7617;-0.3529;0.842
6.411000;-0.1453;-0.7337;-0.2419;0.786
6.412000;-0.2049;-0.7202;-0.1549;0.765
6.412000;-0.2255;-0.6717;-0.1229;0.719
6.413000;-0.2265;-0.6582;-0.1693;0.716
6.413000;-0.2319;-0.6270;-0.2871;0.728
6.414000;-0.2202;-0.5550;-0.4544;0.750
6.414000;-0.1558;-0.4805;-0.6234;0.802
6.414000;-0.1274;-0.3984;-0.8491;0.947
6.419000;-0.0398;-0.2943;-1.0645;1.105
6.423000;0.0539;-0.1582;-1.2316;1.243
6.428000;0.1894;-0.0307;-1.3885;1.402
6.433000;0.3403;0.0884;-1.5282;1.568
6.441000;0.5017;0.2016;-1.5862;1.676
6.443000;0.6331;0.3380;-1.6536;1.803
6.447000;0.7347;0.4594;-1.6943;1.903
6.453000;0.8501;0.5756;-1.7230;2.006
6.468000;0.9104;0.6530;-1.7348;2.065
6.469000;0.9568;0.7281;-1.7514;2.124
6.470000;0.9513;0.7790;-1.7775;2.161
6.478000;0.9730;0.8230;-1.8108;2.214
6.480000;0.9410;0.8031;-1.8276;2.207
6.483000;0.8887;0.7862;-1.8707;2.215
6.487000;0.8234;0.7152;-1.8543;2.151
6.492000;0.7186;0.6384;-1.7762;2.020
6.497000;0.5267;0.5965;-1.6698;1.850
6.502000;0.3317;0.5205;-1.4947;1.617
6.507000;0.2146;0.4292;-1.2724;1.360
6.512000;0.0487;0.2604;-1.0532;1.086
6.517000;-0.0345;0.1068;-0.8368;0.844
6.522000;-0.1476;-0.0317;-0.6495;0.667
6.526000;-0.2961;-0.1631;-0.5222;0.622
6.531000;-0.4134;-0.2561;-0.4667;0.674
6.536000;-0.5476;-0.3327;-0.3753;0.743
6.541000;-0.6537;-0.3906;-0.3413;0.834
6.546000;-0.7176;-0.4176;-0.3000;0.883
6.551000;-0.7302;-0.4282;-0.2514;0.883
6.558000;-0.6965;-0.4438;-0.2148;0.853
6.560000;-0.6211;-0.4214;-0.2140;0.780
6.565000;-0.5275;-0.3730;-0.1748;0.669
6.570000;-0.4225;-0.3130;-0.1403;0.544
6.605000;-0.2916;-0.2605;-0.1322;0.413
6.606000;-0.1178;-0.1890;-0.1407;0.263
6.606000;0.0824;-0.1179;-0.1229;0.189
6.607000;0.2636;0.0151;-0.1528;0.305
6.607000;0.4237;0.1333;-0.2043;0.489
6.607000;0.5939;0.2587;-0.2556;0.696
6.608000;0.7960;0.3958;-0.3093;0.941
6.610000;0.9873;0.4806;-0.3727;1.160
6.614000;1.1538;0.5441;-0.4242;1.344
6.620000;1.2784;0.6151;-0.4805;1.498
6.625000;1.3611;0.6698;-0.5035;1.598
6.630000;1.3541;0.7154;-0.5386;1.623
6.634000;1.3242;0.7543;-0.5141;1.608
6.643000;1.2404;0.7985;-0.4993;1.557
6.645000;1.1552;0.8383;-0.4775;1.505
6.649000;1.0541;0.8591;-0.4438;1.430
6.654000;0.9226;0.8538;-0.4150;1.324
6.693000;0.7891;0.8557;-0.3767;1.224
6.694000;0.6320;0.8551;-0.3575;1.122
6.694000;0.4725;0.8399;-0.3120;1.013
6.695000;0.2888;0.8508;-0.2928;0.945
6.695000;0.1569;0.8257;-0.2041;0.865
6.695000;0.0793;0.8648;-0.1538;0.882
6.696000;-0.0018;0.8582;-0.1249;0.867
6.696000;-0.0238;0.8821;-0.0767;0.886
6.697000;-0.0490;0.9245;-0.0858;0.930
6.703000;-0.0460;0.9401;-0.0637;0.943
6.708000;-0.0365;0.9957;-0.0749;0.999
6.713000;-0.0464;1.0246;-0.0716;1.028
6.717000;-0.0067;1.0555;-0.0132;1.056
6.723000;0.0348;1.0812;-0.0361;1.082
6.727000;0.0587;1.1089;0.0176;1.111
6.732000;0.1321;1.1386;0.1001;1.151
6.737000;0.2071;1.1416;0.1682;1.172
6.743000;0.2387;1.1175;0.2102;1.162
6.746000;0.2892;1.0976;0.2284;1.158
6.752000;0.3326;1.1084;0.2443;1.183
6.759000;0.3475;1.1211;0.2603;1.202
6.762000;0.2961;1.0952;0.2596;1.164
6.767000;0.2692;1.0715;0.2973;1.144
6.771000;0.2934;1.0571;0.3469;1.151
6.807000;0.3184;0.9994;0.4061;1.125
6.808000;0.3318;0.9583;0.4629;1.115
6.808000;0.3481;0.8975;0.4887;1.080
6.809000;0.3123;0.8221;0.5218;1.023
6.809000;0.2531;0.7510;0.5550;0.968
6.810000;0.2064;0.6985;0.5477;0.911
6.810000;0.1842;0.6503;0.5501;0.871
6.810000;0.1744;0.6207;0.5718;0.862
6.815000;0.1533;0.5739;0.6176;0.857
6.820000;0.1304;0.5578;0.6611;0.875
6.827000;0.0748;0.5176;0.6950;0.870
6.830000;0.0202;0.4745;0.7410;0.880
6.835000;-0.0096;0.4167;0.7369;0.847
6.844000;-0.0693;0.3942;0.7689;0.867
6.845000;-0.1021;0.3401;0.8226;0.896
6.850000;-0.1149;0.2803;0.8311;0.885
6.854000;-0.1299;0.2434;0.8399;0.884
6.889000;-0.1978;0.1553;0.7894;0.829
6.890000;-0.2522;0.1116;0.7203;0.771
6.890000;-0.2525;0.0766;0.6850;0.734
6.890000;-0.2473;0.0365;0.6523;0.699
6.891000;-0.2009;-0.0016;0.6007;0.633
6.891000;-0.1662;-0.0655;0.5371;0.566
6.891000;-0.0244;-0.1529;0.4736;0.498
6.894000;0.0854;-0.2676;0.4264;0.511
6.899000;0.1818;-0.3251;0.1661;0.408
6.903000;0.2360;-0.4106;0.4237;0.635
6.909000;0.2412;-0.5089;0.5770;0.806
6.914000;0.2461;-0.5333;0.5973;0.838
6.918000;0.2184;-0.6053;0.8836;1.093
6.924000;0.2004;-0.7009;1.2253;1.426
6.928000;0.1549;-0.8350;1.5605;1.777
6.934000;0.0932;-1.0177;1.7722;2.046
6.937000;-0.0672;-1.1898;2.0519;2.373
6.942000;-0.2128;-1.3883;2.2804;2.678
6.947000;-0.3865;-1.5346;2.3887;2.865
6.952000;-0.5880;-1.6729;2.4584;3.031
6.959000;-0.7700;-1.8160;2.4205;3.122
6.964000;-0.9476;-1.8766;2.2805;3.102
6.967000;-1.0998;-1.9507;2.0671;3.048
6.972000;-1.2230;-1.9625;1.7615;2.907
7.004000;-1.2805;-1.9289;1.3998;2.705
7.005000;-1.2741;-1.8954;1.0321;2.506
7.005000;-1.1574;-1.8640;0.6799;2.297
7.005000;-0.9987;-1.7653;0.4387;2.075
7.006000;-0.7709;-1.6226;0.2746;1.817
7.006000;-0.5843;-1.4786;0.0847;1.592
7.014000;-0.3839;-1.2898;-0.0620;1.347
7.015000;-0.1688;-1.1565;-0.1463;1.178
7.016000;0.0375;-1.0042;-0.1470;1.016
7.021000;0.1543;-0.9046;-0.1334;0.927
7.026000;0.1921;-0.8071;-0.1296;0.840
7.031000;0.1991;-0.7548;-0.1162;0.789
7.035000;0.1433;-0.7641;-0.0768;0.781
7.044000;0.0661;-0.7920;-0.0830;0.799
7.046000;0.0139;-0.8982;-0.0462;0.900
7.050000;-0.1080;-1.0111;-0.0574;1.018
7.055000;-0.2152;-1.1399;-0.0424;1.161
7.061000;-0.3220;-1.2538;-0.1255;1.301
7.064000;-0.4758;-1.3553;-0.1871;1.449
7.070000;-0.5690;-1.4229;-0.2988;1.561
7.102000;-0.6640;-1.4642;-0.3984;1.656
7.103000;-0.7298;-1.4695;-0.5360;1.726
7.103000;-0.7859;-1.4508;-0.7141;1.798
7.103000;-0.7970;-1.4109;-0.8418;1.826
7.104000;-0.7856;-1.3591;-0.9906;1.856
7.104000;-0.6826;-1.2933;-1.1154;1.839
7.105000;-0.5391;-1.2037;-1.2279;1.802
7.113000;-0.4443;-1.1143;-1.3093;1.776
7.114000;-0.3244;-0.9967;-1.3450;1.705
7.119000;-0.2086;-0.8866;-1.3687;1.644
7.124000;-0.1047;-0.7675;-1.3659;1.570
7.129000;-0.0103;-0.6849;-1.3106;1.479
7.133000;0.0428;-0.6078;-1.2647;1.404
7.139000;0.0549;-0.5647;-1.1710;1.301
7.144000;0.0377;-0.4892;-1.0605;1.169
7.149000;0.0658;-0.4624;-0.9787;1.084
7.153000;0.0512;-0.4652;-0.8776;0.995
7.161000;0.0325;-0.4619;-0.8170;0.939
7.163000;-0.0135;-0.4762;-0.7970;0.928
7.168000;-0.0098;-0.4910;-0.7815;0.923
7.172000;-0.0704;-0.4943;-0.7851;0.930
7.206000;-0.1090;-0.5073;-0.8244;0.974
7.207000;-0.1369;-0.5224;-0.8136;0.977
7.207000;-0.1900;-0.5274;-0.8148;0.989
7.207000;-0.1914;-0.5532;-0.7732;0.970
7.208000;-0.1891;-0.5830;-0.7294;0.953
7.208000;-0.1929;-0.5929;-0.7075;0.943
7.208000;-0.2146;-0.5875;-0.6618;0.911
7.212000;-0.2208;-0.5865;-0.6139;0.877
7.217000;-0.2451;-0.5539;-0.6068;0.857
7.222000;-0.2592;-0.5190;-0.5520;0.801
7.227000;-0.2895;-0.4723;-0.5353;0.770
7.231000;-0.3436;-0.4261;-0.5378;0.767
7.236000;-0.3954;-0.3182;-0.5903;0.778
7.244000;-0.4092;-0.2612;-0.6688;0.826
7.247000;-0.4044;-0.2026;-0.7184;0.849
7.251000;-0.4074;-0.1400;-0.7965;0.905
7.256000;-0.3682;-0.0539;-0.9460;1.017
7.287000;-0.2989;0.0460;-1.0355;1.079
7.288000;-0.2547;0.1410;-1.1178;1.155
7.288000;-0.1758;0.2146;-1.1785;1.211
7.289000;-0.0791;0.3101;-1.1843;1.227
7.289000;0.0284;0.3798;-1.1090;1.173
7.289000;0.1226;0.4476;-1.0149;1.116
7.298000;0.2114;0.5398;-0.9449;1.109
7.299000;0.2731;0.6062;-0.8226;1.058
7.300000;0.2652;0.6728;-0.7220;1.022
7.305000;0.2500;0.6918;-0.6144;0.958
7.310000;0.2396;0.7444;-0.5190;0.939
7.315000;0.1912;0.7708;-0.3902;0.885
7.320000;0.1628;0.7735;-0.2545;0.830
7.326000;0.0707;0.8073;-0.1404;0.823
7.330000;0.0421;0.8291;-0.0313;0.831
7.335000;-0.0235;0.7814;0.0801;0.786
7.340000;-0.0830;0.7884;0.1867;0.814
7.345000;-0.1052;0.7567;0.2408;0.801
7.349000;-0.1572;0.7507;0.3188;0.831
7.353000;-0.1912;0.7678;0.3491;0.865
7.362000;-0.1808;0.7982;0.4035;0.913
7.365000;-0.2003;0.8515;0.4008;0.962
7.369000;-0.1687;0.9105;0.3889;1.004
7.374000;-0.1462;0.9943;0.3200;1.055
7.409000;-0.0899;1.0361;0.2420;1.068
7.410000;-0.0434;1.0956;0.1526;1.107
7.410000;0.0292;1.1682;0.0420;1.169
7.410000;0.0870;1.1850;-0.0874;1.191
7.411000;0.1395;1.2392;-0.1781;1.260
7.411000;0.1485;1.2976;-0.2733;1.334
7.412000;0.1452;1.3292;-0.3515;1.383
7.413000;0.1032;1.3605;-0.4439;1.435
7.417000;0.0318;1.4250;-0.4955;1.509
7.422000;-0.0404;1.4490;-0.5519;1.551
7.428000;-0.0822;1.4401;-0.5557;1.546
7.433000;-0.1228;1.4341;-0.5214;1.531
7.438000;-0.1384;1.4096;-0.4467;1.485
7.445000;-0.1481;1.3452;-0.3054;1.387
7.447000;-0.0875;1.2935;-0.1740;1.308
7.452000;-0.0500;1.2114;0.0144;1.213
7.457000;0.0005;1.1366;0.1907;1.153
7.488000;0.0425;1.0644;0.3715;1.128
7.489000;0.1024;0.9921;0.4996;1.116
7.489000;0.1611;0.9292;0.6133;1.125
7.490000;0.2401;0.8948;0.7485;1.191
7.490000;0.2767;0.8530;0.8311;1.223
7.490000;0.3307;0.8062;0.9495;1.289
7.498000;0.3826;0.7787;1.0822;1.387
7.499000;0.4159;0.7635;1.2433;1.517
7.501000;0.4475;0.7461;1.3852;1.636
7.506000;0.4494;0.7337;1.5915;1.809
7.510000;0.4745;0.6973;1.7617;1.953
7.515000;0.4285;0.6707;1.9341;2.091
7.520000;0.3524;0.6005;2.0850;2.198
7.526000;0.2878;0.5731;2.1523;2.246
7.531000;0.2542;0.4636;2.1670;2.231
7.535000;0.1232;0.3367;2.1891;2.218
7.540000;0.0479;0.2426;2.0561;2.071
7.545000;-0.0888;0.1048;1.8564;1.861
7.550000;-0.2010;-0.0166;1.6642;1.676
7.555000;-0.2846;-0.1189;1.4340;1.467
7.563000;-0.3785;-0.1967;1.1991;1.273
7.565000;-0.4354;-0.2113;0.9761;1.089
7.569000;-0.4918;-0.2913;1.0110;1.161
7.574000;-0.4596;-0.2737;0.6535;0.844
7.611000;-0.3965;-0.2854;0.6136;0.784
7.613000;-0.2740;-0.3262;0.5779;0.718
7.613000;-0.1466;-0.3174;0.4821;0.596
7.613000;-0.0382;-0.3402;0.4359;0.554
7.615000;0.0636;-0.3252;0.3390;0.474
7.615000;0.1610;-0.2868;0.2846;0.435
7.615000;0.2305;-0.2701;0.2105;0.413
7.616000;0.2624;-0.2509;0.1500;0.393
7.618000;0.3212;-0.2434;0.1532;0.431
7.623000;0.3566;-0.3069;0.1723;0.501
7.630000;0.4206;-0.3722;0.2956;0.635
7.634000;0.4228;-0.4729;0.4945;0.804
7.638000;0.4060;-0.5735;0.7928;1.059
7.645000;0.3395;-0.6987;1.0951;1.343
7.647000;0.2521;-0.8512;1.3657;1.629
7.652000;0.1228;-0.9967;1.5309;1.831
7.657000;0.0094;-1.1282;1.6961;2.037
7.695000;-0.1837;-1.2110;1.7947;2.173
7.696000;-0.3962;-1.2809;1.8267;2.266
7.696000;-0.5638;-1.3266;1.7445;2.263
7.696000;-0.7390;-1.4317;1.6391;2.298
7.697000;-0.8293;-1.4647;1.5989;2.322
7.697000;-0.8922;-1.5425;1.4686;2.309
7.697000;-0.8783;-1.5815;1.2935;2.224
7.698000;-0.9194;-1.6104;1.1479;2.181
7.701000;-0.9108;-1.5980;0.9886;2.088
7.706000;-0.9071;-1.5513;0.8419;1.984
7.712000;-0.8923;-1.4942;0.6767;1.867
7.716000;-0.8494;-1.4195;0.5146;1.732
7.721000;-0.8339;-1.3367;0.3530;1.615
7.727000;-0.7668;-1.2360;0.1944;1.467
7.731000;-0.7270;-1.1292;0.0243;1.343
7.736000;-0.6404;-1.0591;-0.0952;1.241
7.741000;-0.6051;-0.9703;-0.2479;1.170
7.746000;-0.5705;-0.9417;-0.4003;1.172
7.751000;-0.4794;-0.9178;-0.5382;1.167
7.755000;-0.3912;-0.9103;-0.6736;1.198
7.764000;-0.3014;-0.8954;-0.7922;1.233
7.765000;-0.1932;-0.8704;-0.8940;1.263
7.770000;-0.1098;-0.8281;-0.9457;1.262
7.774000;-0.0273;-0.7923;-0.9831;1.263
7.813000;0.0874;-0.7153;-0.9872;1.222
7.815000;0.1628;-0.6688;-0.9938;1.209
7.815000;0.2565;-0.6099;-0.9886;1.190
7.815000;0.3808;-0.5507;-0.9572;1.168
7.816000;0.4523;-0.5130;-0.9545;1.174
7.816000;0.5618;-0.5063;-0.9400;1.206
7.817000;0.6234;-0.4685;-0.9421;1.223
7.817000;0.7065;-0.4619;-0.9515;1.272
7.820000;0.8016;-0.4292;-0.9631;1.325
7.824000;0.8921;-0.3847;-0.9699;1.373
7.829000;0.9235;-0.3456;-1.0340;1.429
7.834000;0.9583;-0.2951;-1.1241;1.506
7.839000;0.9799;-0.2712;-1.2117;1.582
7.847000;0.9911;-0.2116;-1.2848;1.636
7.849000;0.9988;-0.1333;-1.3888;1.716
7.853000;0.9121;-0.0598;-1.4831;1.742
7.858000;0.8457;0.0046;-1.5345;1.752
7.892000;0.7447;0.0765;-1.5787;1.747
7.893000;0.6422;0.0916;-1.5680;1.697
7.894000;0.5073;0.0976;-1.5718;1.655
7.894000;0.3637;0.0490;-1.5184;1.562
7.894000;0.2087;0.0106;-1.5201;1.534
7.895000;0.0348;-0.0514;-1.5075;1.509
7.895000;-0.1294;-0.1180;-1.4567;1.467
7.897000;-0.3252;-0.1582;-1.4680;1.512
7.903000;-0.4809;-0.1934;-1.4603;1.550
7.907000;-0.6326;-0.1783;-1.4359;1.579
7.912000;-0.7636;-0.1632;-1.4234;1.624
7.917000;-0.8836;-0.1384;-1.3847;1.648
7.922000;-0.9354;-0.1328;-1.3221;1.625
7.928000;-0.9480;-0.0726;-1.2524;1.572
7.932000;-0.9189;-0.0316;-1.1565;1.477
7.937000;-0.8462;0.0520;-1.0390;1.341
7.942000;-0.7159;0.1394;-0.8786;1.142
7.950000;-0.5494;0.2404;-0.7970;0.997
7.952000;-0.3633;0.3689;-0.6938;0.866
7.957000;-0.2028;0.4534;-0.5929;0.773
8.012000;0.0065;0.5772;-0.5349;0.787
8.013000;0.2194;0.6736;-0.5437;0.893
8.013000;0.4147;0.7524;-0.5450;1.017
8.014000;0.5809;0.8423;-0.5701;1.171
8.014000;0.7276;0.9341;-0.6166;1.335
8.014000;0.8533;1.0235;-0.6486;1.482
8.015000;0.9726;1.1179;-0.6449;1.616
8.015000;1.0790;1.2173;-0.6627;1.756
8.015000;1.1371;1.3147;-0.7093;1.877
8.016000;1.1665;1.3577;-0.7345;1.935
8.016000;1.1315;1.4060;-0.7503;1.955
8.017000;1.0727;1.4240;-0.7973;1.953
8.020000;0.9920;1.4187;-0.8062;1.910
8.025000;0.8551;1.4548;-0.7578;1.850
8.030000;0.7017;1.4505;-0.6570;1.740
8.035000;0.5624;1.4488;-0.5349;1.644
8.040000;0.4320;1.4230;-0.4129;1.543
8.049000;0.3338;1.3775;-0.2837;1.446
8.049000;0.3247;1.3694;-0.1306;1.413
8.054000;0.3351;1.3359;-0.0442;1.378
8.059000;0.3267;1.3178;0.0687;1.359
8.091000;0.3452;1.3412;0.1268;1.391
8.092000;0.3620;1.3724;0.1853;1.431
8.092000;0.3749;1.4091;0.1940;1.471
8.092000;0.3792;1.4251;0.1242;1.480
8.093000;0.3896;1.4591;0.1336;1.516
8.093000;0.3894;1.4734;0.0859;1.526
8.093000;0.3956;1.4612;0.0597;1.515
8.102000;0.3914;1.4561;0.0910;1.511
8.103000;0.4174;1.4228;0.1628;1.492
8.108000;0.3950;1.3949;0.2989;1.480
8.113000;0.3911;1.3391;0.4012;1.452
8.118000;0.3872;1.2485;0.5319;1.411
8.123000;0.3622;1.1614;0.6478;1.378
8.129000;0.3070;1.0300;0.7967;1.338
8.133000;0.2935;0.9525;0.9428;1.372
8.137000;0.2264;0.8548;1.1266;1.432
8.142000;0.1827;0.7915;1.2909;1.525
8.151000;0.1102;0.7218;1.4619;1.634
8.153000;-0.0078;0.6311;1.6373;1.755
8.157000;-0.1210;0.5739;1.8292;1.921
8.164000;-0.2561;0.4876;1.9971;2.072
8.170000;-0.3511;0.4194;2.0958;2.166
8.174000;-0.4972;0.3785;2.1851;2.273
8.220000;-0.5941;0.3570;2.1531;2.262
8.220000;-0.6730;0.3328;2.1266;2.255
8.221000;-0.7027;0.3179;2.0244;2.166
8.221000;-0.6814;0.3073;1.8084;1.957
8.222000;-0.6331;0.3010;1.5146;1.669
8.222000;-0.5746;0.3068;1.1741;1.343
8.222000;-0.5064;0.3495;0.8368;1.039
8.223000;-0.4862;0.3677;0.5623;0.829
8.223000;-0.5048;0.3313;0.2977;0.673
8.223000;-0.5173;0.3511;0.0355;0.626
8.225000;-0.4545;0.3249;-0.1886;0.590
8.231000;-0.3983;0.2078;-0.2410;0.510
8.236000;-0.3804;0.1225;-0.4566;0.607
8.241000;-0.3158;-0.0283;-0.2620;0.411
8.247000;-0.2506;-0.2037;-0.0115;0.323
8.250000;-0.1829;-0.3409;0.2136;0.442
8.255000;-0.1650;-0.4667;0.6307;0.802
8.260000;-0.1192;-0.6623;1.0724;1.266
8.296000;-0.1397;-0.8472;1.5127;1.739
8.298000;-0.1204;-1.0149;1.8704;2.131
8.298000;-0.1676;-1.1924;2.1985;2.507
8.299000;-0.2324;-1.3608;2.4876;2.845
8.299000;-0.3858;-1.5233;2.6756;3.103
8.300000;-0.4650;-1.6682;2.8274;3.316
8.301000;-0.5505;-1.8223;2.8547;3.431
8.301000;-0.6467;-1.9667;2.8701;3.539
8.305000;-0.7390;-2.0376;2.8115;3.550
8.309000;-0.8081;-2.1097;2.7151;3.532
8.314000;-0.7802;-2.1406;2.5190;3.397
8.319000;-0.8156;-2.0806;2.2591;3.178
8.323000;-0.8477;-2.0186;1.8976;2.897
8.329000;-0.8195;-1.9261;1.4680;2.557
8.334000;-0.7796;-1.8267;1.0276;2.236
8.344000;-0.7097;-1.6864;0.6266;1.934
8.355000;-0.6471;-1.5525;0.2552;1.701
8.357000;-0.5587;-1.3885;-0.1323;1.503
8.358000;-0.4459;-1.2009;-0.4570;1.360
8.364000;-0.3685;-1.0277;-0.7837;1.344
8.365000;-0.2507;-0.8251;-1.0195;1.335
8.371000;-0.2076;-0.5927;-1.1812;1.338
8.374000;-0.1131;-0.4330;-1.2858;1.361
8.413000;-0.0485;-0.2783;-1.2356;1.267
8.415000;0.0337;-0.1905;-1.0977;1.115
8.415000;0.1098;-0.1214;-0.8580;0.873
8.415000;0.2091;-0.1050;-0.5188;0.569
8.416000;0.2628;-0.1773;-0.1710;0.360
8.416000;0.3222;-0.2868;0.1331;0.451
8.416000;0.2950;-0.4269;0.3795;0.643
8.416000;0.2542;-0.5814;0.5779;0.858
8.417000;0.1647;-0.7125;0.7500;1.047
8.425000;0.0158;-0.8472;0.8003;1.165
8.426000;-0.1009;-0.9281;0.8294;1.249
8.431000;-0.2612;-1.0799;0.7298;1.329
8.438000;-0.3691;-1.1730;0.5972;1.367
8.441000;-0.4461;-1.2796;0.3624;1.403
8.447000;-0.5089;-1.3705;0.1378;1.468
8.455000;-0.5365;-1.4573;-0.1485;1.560
8.456000;-0.5244;-1.4779;-0.4677;1.636
8.460000;-0.5334;-1.4630;-0.7696;1.737
8.491000;-0.5140;-1.3909;-0.9873;1.781
8.492000;-0.4388;-1.2735;-1.1473;1.769
8.492000;-0.3585;-1.1778;-1.2783;1.775
8.492000;-0.2455;-1.0561;-1.3781;1.753
8.493000;-0.1480;-0.9515;-1.4608;1.750
8.493000;-0.0166;-0.8453;-1.5337;1.751
8.498000;0.0627;-0.7255;-1.5896;1.748
8.502000;0.1326;-0.6138;-1.6835;1.797
8.507000;0.1430;-0.5318;-1.7436;1.828
8.510000;0.1462;-0.4390;-1.8417;1.899
8.515000;0.1233;-0.3710;-1.9443;1.983
8.519000;0.0932;-0.3202;-1.9869;2.015
8.524000;0.0345;-0.3128;-2.0272;2.051
8.529000;-0.0264;-0.3267;-2.0269;2.053
8.534000;-0.0915;-0.3281;-2.0124;2.041
8.539000;-0.1511;-0.4175;-1.9550;2.005
8.544000;-0.2238;-0.5274;-1.8407;1.928
8.549000;-0.2712;-0.6246;-1.7314;1.861
8.553000;-0.3816;-0.7159;-1.5867;1.782
8.558000;-0.4828;-0.7564;-1.4614;1.715
8.565000;-0.6201;-0.8034;-1.3173;1.663
8.568000;-0.7527;-0.8117;-1.1592;1.603
8.573000;-0.8828;-0.8173;-1.0252;1.581
8.607000;-0.9671;-0.8157;-0.9105;1.559
8.608000;-1.0032;-0.8001;-0.8389;1.533
8.608000;-0.9937;-0.8015;-0.7792;1.496
8.609000;-0.9625;-0.7724;-0.7099;1.424
8.609000;-0.9052;-0.7297;-0.6740;1.344
8.609000;-0.8532;-0.6948;-0.6906;1.299
8.609000;-0.7683;-0.6366;-0.6928;1.215
8.616000;-0.6629;-0.5552;-0.6804;1.100
8.619000;-0.5659;-0.4792;-0.7134;1.029
8.623000;-0.4603;-0.3752;-0.7105;0.926
8.629000;-0.3607;-0.2931;-0.7529;0.885
8.634000;-0.3004;-0.1967;-0.7331;0.816
8.637000;-0.2026;-0.0957;-0.7325;0.766
8.642000;-0.1105;-0.0163;-0.7105;0.719
8.646000;-0.0239;0.0633;-0.6574;0.661
8.651000;0.0453;0.1310;-0.6069;0.622
8.656000;0.1451;0.1751;-0.5350;0.581
8.661000;0.1894;0.2099;-0.4537;0.535
8.669000;0.2003;0.2213;-0.3797;0.483
8.671000;0.1614;0.2882;-0.2845;0.436
8.675000;0.1215;0.3027;-0.2229;0.395
8.697000;0.0498;0.3393;-0.1422;0.371
8.698000;0.0015;0.3140;-0.0235;0.315
8.698000;-0.0572;0.3151;0.0927;0.333
8.698000;-0.1337;0.2515;0.1657;0.330
8.700000;-0.2404;0.2451;0.2555;0.428
8.705000;-0.3153;0.2289;0.3071;0.496
8.710000;-0.3634;0.2288;0.3372;0.546
8.715000;-0.4014;0.2471;0.3841;0.608
8.721000;-0.4202;0.2811;0.4097;0.651
8.725000;-0.3745;0.3548;0.3901;0.647
8.730000;-0.2884;0.4204;0.3826;0.637
8.735000;-0.1718;0.4827;0.3825;0.639
8.739000;-0.0535;0.5393;0.3587;0.650
8.744000;0.0520;0.6143;0.3494;0.709
8.751000;0.1349;0.6670;0.3354;0.759
8.754000;0.1999;0.6881;0.3167;0.783
8.759000;0.2641;0.7017;0.3436;0.825
8.765000;0.3034;0.7413;0.3418;0.871
8.769000;0.3182;0.7735;0.3759;0.917
8.774000;0.3038;0.8197;0.4171;0.969
8.779000;0.2894;0.8180;0.3986;0.955
8.802000;0.2467;0.8352;0.3826;0.951
8.802000;0.1997;0.8330;0.3930;0.942
8.803000;0.1391;0.8211;0.3747;0.913
8.803000;0.1198;0.8308;0.3277;0.901
8.803000;0.0963;0.7950;0.3000;0.855
8.808000;0.0778;0.7712;0.2914;0.828
8.815000;0.0565;0.7884;0.3186;0.852
8.818000;0.0584;0.7746;0.3219;0.841
8.824000;0.0425;0.7467;0.3657;0.832
8.828000;0.0373;0.7212;0.4620;0.857
8.833000;0.0377;0.6720;0.6275;0.920
8.837000;0.0195;0.6825;0.8358;1.079
8.843000;0.0215;0.6448;1.0512;1.233
8.850000;0.0460;0.6233;1.2449;1.393
8.855000;0.0338;0.6439;1.3908;1.533
8.861000;-0.0316;0.6632;1.5129;1.652
8.862000;-0.1090;0.6788;1.6042;1.745
8.894000;-0.1600;0.6619;1.6647;1.799
8.895000;-0.2631;0.6104;1.6920;1.818
8.895000;-0.3111;0.5649;1.6383;1.761
8.895000;-0.3253;0.4613;1.6041;1.700
8.896000;-0.3392;0.3261;1.5318;1.602
8.896000;-0.3312;0.2004;1.4598;1.510
8.897000;-0.2848;0.1275;1.2588;1.297
8.901000;-0.2933;0.0507;1.1272;1.166
8.906000;-0.2921;-0.0012;1.3541;1.385
8.911000;-0.2689;-0.0136;1.2386;1.268
8.916000;-0.2262;-0.0292;1.1659;1.188
8.921000;-0.1468;-0.0213;1.2124;1.221
8.927000;-0.0141;-0.0669;1.2082;1.210
8.932000;0.1385;-0.1106;1.2155;1.228
8.937000;0.2348;-0.1595;1.1912;1.225
8.941000;0.3110;-0.2066;1.1951;1.252
8.945000;0.3506;-0.2636;1.2176;1.294
8.953000;0.3516;-0.2874;1.2658;1.345
8.956000;0.2690;-0.3308;1.3373;1.404
8.960000;0.2059;-0.4012;1.4202;1.490
8.986000;0.0983;-0.4584;1.5431;1.613
8.987000;-0.0513;-0.5815;1.5558;1.662
8.987000;-0.1997;-0.7326;1.5587;1.734
8.987000;-0.3188;-0.9408;1.5256;1.820
8.988000;-0.4424;-1.1152;1.4854;1.909
8.991000;-0.5859;-1.2992;1.4669;2.045
8.995000;-0.6757;-1.4163;1.4007;2.103
8.999000;-0.7438;-1.5556;1.3300;2.178
9.005000;-0.8069;-1.5544;1.2883;2.174
9.010000;-0.8657;-1.6044;1.2040;2.185
9.015000;-0.8339;-1.5863;1.1177;2.112
9.019000;-0.7551;-1.5673;0.9961;2.005
9.024000;-0.6175;-1.5304;0.8272;1.846
9.029000;-0.4933;-1.4903;0.6780;1.710
9.035000;-0.3750;-1.4321;0.4360;1.543
9.039000;-0.2532;-1.4083;0.2496;1.452
9.044000;-0.0796;-1.3395;0.0707;1.344
9.049000;0.0139;-1.2851;-0.0841;1.288
9.054000;0.0943;-1.3071;-0.2053;1.326
9.058000;0.1569;-1.2595;-0.3670;1.321
9.107000;0.1803;-1.2135;-0.4737;1.315
9.108000;0.1240;-1.1715;-0.5590;1.304
9.109000;0.0338;-1.1428;-0.6469;1.314
9.109000;-0.1047;-1.1078;-0.6466;1.287
9.110000;-0.2392;-1.0931;-0.6227;1.281
9.110000;-0.3771;-1.0916;-0.5514;1.280
9.110000;-0.4659;-1.1104;-0.4661;1.291
9.111000;-0.5077;-1.1428;-0.3644;1.303
9.111000;-0.5171;-1.1702;-0.2819;1.310
9.111000;-0.4815;-1.1838;-0.2042;1.294
9.117000;-0.4367;-1.1623;-0.1432;1.250
9.117000;-0.3514;-1.1136;-0.1560;1.178
9.122000;-0.2635;-1.0476;-0.2328;1.105
9.127000;-0.1396;-0.9313;-0.3712;1.012
9.133000;-0.0252;-0.7626;-0.5446;0.937
9.137000;0.0918;-0.6129;-0.7436;0.968
9.141000;0.2444;-0.4461;-0.9539;1.081
9.146000;0.4659;-0.3097;-1.1803;1.306
9.151000;0.7080;-0.2391;-1.3416;1.536
9.156000;0.9006;-0.1261;-1.4692;1.728
9.161000;1.0482;-0.0350;-1.6156;1.926
9.187000;1.1867;0.0298;-1.7333;2.101
9.187000;1.2305;0.1141;-1.8055;2.188
9.188000;1.2568;0.2229;-1.8419;2.241
9.188000;1.2564;0.3015;-1.8379;2.247
9.188000;1.2299;0.3690;-1.8031;2.214
9.190000;1.1444;0.3991;-1.7781;2.152
9.195000;1.0483;0.4419;-1.7414;2.080
9.200000;0.8992;0.4449;-1.7311;2.001
9.205000;0.7739;0.4034;-1.7355;1.943
9.210000;0.6347;0.3556;-1.7256;1.873
9.215000;0.5008;0.2607;-1.7326;1.822
9.219000;0.3218;0.2048;-1.8091;1.849
9.224000;0.1357;0.1281;-1.8449;1.854
9.230000;-0.0054;0.0668;-1.8642;1.865
9.236000;-0.1430;0.0183;-1.8454;1.851
9.240000;-0.2869;-0.0124;-1.8100;1.833
9.244000;-0.3594;-0.0330;-1.7653;1.802
9.250000;-0.4322;-0.0196;-1.7065;1.760
9.260000;-0.4822;-0.0012;-1.5617;1.634
9.260000;-0.5122;0.0552;-1.4840;1.571
9.298000;-0.5128;0.1157;-1.3824;1.479
9.299000;-0.5368;0.1756;-1.3310;1.446
9.299000;-0.5077;0.2107;-1.2866;1.399
9.299000;-0.4662;0.2307;-1.2637;1.367
9.300000;-0.4076;0.2906;-1.2766;1.371
9.300000;-0.3364;0.3474;-1.2917;1.379
9.300000;-0.2549;0.3918;-1.3091;1.390
9.301000;-0.1317;0.4385;-1.3218;1.399
9.303000;-0.0118;0.5044;-1.3655;1.456
9.308000;0.1432;0.5589;-1.3616;1.479
9.314000;0.2691;0.6189;-1.3698;1.527
9.317000;0.3494;0.6824;-1.3186;1.525
9.322000;0.4417;0.7662;-1.2391;1.522
9.327000;0.5150;0.8181;-1.1768;1.523
9.332000;0.5457;0.8525;-1.0647;1.469
9.338000;0.5939;0.8959;-0.8840;1.392
9.342000;0.6236;0.9075;-0.7182;1.315
9.347000;0.6350;0.9327;-0.5052;1.236
9.359000;0.6020;0.9398;-0.2927;1.154
9.360000;0.5104;0.9217;-0.0592;1.055
9.361000;0.3936;0.8735;0.1284;0.967
9.395000;0.3067;0.8400;0.3493;0.960
9.395000;0.1562;0.8043;0.5125;0.966
9.396000;0.0759;0.7469;0.6779;1.012
9.396000;-0.0418;0.7084;0.8051;1.073
9.396000;-0.1351;0.6547;0.9132;1.132
9.396000;-0.2134;0.6454;0.9904;1.201
9.398000;-0.2434;0.6180;1.0750;1.264
9.401000;-0.2899;0.6061;1.1001;1.289
9.406000;-0.2861;0.6283;1.0922;1.292
9.411000;-0.2512;0.6509;1.0655;1.274
9.416000;-0.1972;0.7076;1.0130;1.251
9.420000;-0.0984;0.7481;0.9801;1.237
9.425000;0.0068;0.7870;0.8902;1.188
9.430000;0.1516;0.8815;0.8391;1.226
9.435000;0.2932;0.9746;0.7882;1.287
9.440000;0.4484;1.0446;0.7234;1.347
9.445000;0.5887;1.1133;0.6590;1.421
9.450000;0.6664;1.1999;0.6140;1.504
9.454000;0.7103;1.2760;0.5382;1.556
9.459000;0.7184;1.3512;0.4961;1.609
9.492000;0.7194;1.3968;0.4567;1.636
9.493000;0.7206;1.4585;0.3888;1.673
9.494000;0.6980;1.4670;0.3355;1.659
9.494000;0.6924;1.4464;0.3373;1.639
9.495000;0.6725;1.4186;0.3415;1.607
9.495000;0.6621;1.3600;0.3863;1.561
9.495000;0.6851;1.3137;0.4597;1.551
9.504000;0.6770;1.2414;0.5807;1.529
9.505000;0.6691;1.1671;0.7230;1.527
9.509000;0.6542;1.0859;0.8628;1.533
9.514000;0.6039;1.0166;1.0191;1.561
9.519000;0.5135;0.9161;1.1275;1.541
9.524000;0.3857;0.8034;1.2025;1.497
9.528000;0.2400;0.7141;1.2823;1.487
9.534000;0.1030;0.6055;1.3240;1.459
9.538000;-0.0801;0.4844;1.3610;1.447
9.544000;-0.2854;0.3415;1.3432;1.415
9.548000;-0.4839;0.2290;1.2994;1.405
9.556000;-0.6472;0.1425;1.2679;1.431
9.558000;-0.7849;0.0649;1.2032;1.438
9.563000;-0.8787;0.0201;1.0863;1.397
9.571000;-0.9358;-0.0186;1.0081;1.376
9.573000;-0.9408;-0.1175;0.9923;1.372
9.578000;-0.8846;-0.1788;0.7306;1.161
9.629000;-0.8308;-0.2214;0.6891;1.102
9.631000;-0.7321;-0.3097;0.5785;0.983
9.631000;-0.6207;-0.4002;0.4797;0.881
9.632000;-0.4423;-0.4928;0.4525;0.802
9.632000;-0.2769;-0.5991;0.4751;0.813
9.633000;-0.1089;-0.6851;0.5569;0.890
9.633000;-0.0032;-0.7406;0.7167;1.031
9.635000;0.1026;-0.7749;0.8875;1.183
9.635000;0.2001;-0.7974;1.1505;1.414
9.636000;0.2768;-0.8080;1.4555;1.688
9.640000;0.3492;-0.8141;1.7525;1.964
9.641000;0.3828;-0.8261;2.0154;2.212
9.641000;0.3871;-0.8680;2.2277;2.422
9.647000;0.3417;-0.8879;2.4112;2.592
9.652000;0.2174;-0.9556;2.4918;2.678
9.656000;0.0696;-0.9786;2.4747;2.662
9.661000;-0.0599;-1.0076;2.2502;2.466
9.707000;-0.2501;-0.9998;1.9692;2.223
9.707000;-0.4270;-1.0177;1.6078;1.950
9.708000;-0.5363;-0.9939;1.1230;1.593
9.708000;-0.5962;-0.9659;0.6343;1.300
9.708000;-0.5649;-0.9144;0.2562;1.105
9.709000;-0.5277;-0.8453;-0.1097;1.002
9.709000;-0.4269;-0.7988;-0.4301;1.003
9.709000;-0.2926;-0.6498;-0.6312;0.952
9.710000;-0.1263;-0.5319;-0.7206;0.904
9.711000;0.0160;-0.3730;-0.6816;0.777
9.714000;0.1293;-0.1945;-0.5600;0.607
9.720000;0.2279;-0.0705;-0.3510;0.424
9.724000;0.3361;0.0250;0.0242;0.338
9.729000;0.3406;0.0553;0.3984;0.527
9.735000;0.3333;-0.0084;0.7694;0.839
9.739000;0.2952;-0.1384;1.0586;1.108
9.744000;0.2038;-0.3300;1.2829;1.340
9.752000;0.0230;-0.5456;1.4354;1.536
9.754000;-0.1814;-0.7734;1.5449;1.737
9.759000;-0.5017;-0.9472;1.4705;1.820
9.763000;-0.7676;-1.1387;1.3393;1.918
9.802000;-1.0385;-1.2908;1.1583;2.021
9.803000;-1.2504;-1.4372;0.9111;2.112
9.803000;-1.3845;-1.5801;0.5762;2.178
9.804000;-1.4344;-1.6502;0.2159;2.197
9.805000;-1.4013;-1.6929;-0.2081;2.207
9.805000;-1.2765;-1.6817;-0.6191;2.200
9.806000;-1.1188;-1.6332;-0.9529;2.197
9.806000;-0.9174;-1.5449;-1.2452;2.186
9.808000;-0.6928;-1.4144;-1.5082;2.181
9.813000;-0.4528;-1.2752;-1.7396;2.204
9.818000;-0.2127;-1.1630;-1.8772;2.219
9.823000;-0.0038;-1.0493;-2.0241;2.280
9.827000;0.1492;-0.9148;-2.0893;2.286
9.832000;0.2557;-0.8197;-2.1638;2.328
9.837000;0.3106;-0.6992;-2.2453;2.372
9.842000;0.3474;-0.6228;-2.2788;2.388
9.848000;0.3161;-0.5613;-2.2954;2.384
9.852000;0.3004;-0.5363;-2.2499;2.332
9.857000;0.2050;-0.5163;-2.2427;2.311
9.861000;0.0854;-0.5443;-2.2046;2.272
9.898000;-0.0031;-0.5937;-2.1379;2.219
9.899000;-0.0791;-0.6620;-2.0379;2.144
9.900000;-0.1874;-0.7251;-1.9717;2.109
9.900000;-0.2583;-0.7810;-1.8960;2.067
9.901000;-0.3296;-0.7933;-1.8133;2.007
9.901000;-0.3936;-0.7954;-1.7453;1.958
9.901000;-0.4308;-0.7729;-1.6536;1.875
9.902000;-0.4936;-0.7543;-1.5599;1.802
9.906000;-0.5411;-0.7301;-1.4928;1.748
9.911000;-0.5492;-0.7073;-1.4451;1.700
9.915000;-0.5298;-0.6741;-1.3833;1.627
9.921000;-0.5024;-0.6163;-1.2907;1.516
9.926000;-0.5052;-0.5532;-1.2271;1.438
9.930000;-0.4955;-0.5016;-1.2114;1.402
9.939000;-0.4857;-0.4210;-1.1433;1.312
9.941000;-0.4475;-0.3548;-1.1374;1.273
9.946000;-0.3960;-0.3032;-1.1435;1.248
9.953000;-0.3075;-0.2090;-1.1447;1.204
9.955000;-0.2230;-0.1153;-1.1841;1.210
9.960000;-0.1043;-0.0123;-1.2378;1.242
9.964000;-0.0206;0.0547;-1.3010;1.302
10.008000;0.0449;0.1579;-1.3978;1.407
10.009000;0.1167;0.2619;-1.4254;1.454
10.009000;0.1737;0.3932;-1.4628;1.525
10.010000;0.2262;0.4875;-1.5030;1.596
10.010000;0.3200;0.5863;-1.4648;1.610
10.010000;0.4337;0.6633;-1.4702;1.670
10.011000;0.5552;0.6545;-1.3903;1.634
10.011000;0.6341;0.6365;-1.2108;1.508
10.011000;0.7155;0.6362;-0.9392;1.341
10.013000;0.7775;0.5408;-0.5539;1.097
10.020000;0.7646;0.4198;-0.0791;0.876
10.024000;0.6862;0.3007;0.3828;0.841
10.028000;0.5398;0.1521;0.8677;1.033
10.033000;0.3425;0.0108;1.3808;1.423
10.038000;0.0989;-0.1240;1.8528;1.860
10.043000;-0.1140;-0.1892;2.2365;2.247
10.049000;-0.3725;-0.2358;2.4939;2.533
10.053000;-0.5658;-0.2340;2.6779;2.747
10.058000;-0.7021;-0.1581;2.6622;2.758
10.063000;-0.7060;-0.0828;2.5045;2.603
10.072000;-0.6001;0.0207;2.1594;2.241
10.075000;-0.3427;0.1116;1.6775;1.716
10.077000;-0.0410;0.2219;1.0611;1.085
10.082000;0.2209;0.3764;0.4513;0.628
10.132000;0.4207;0.5904;-0.0902;0.731
10.132000;0.5716;0.7959;-0.7620;1.241
10.133000;0.6970;1.0584;-1.3397;1.844
10.133000;0.7931;1.3503;-1.8688;2.438
10.133000;0.8877;1.6174;-2.2973;2.946
10.134000;0.9433;1.8653;-2.6541;3.378
10.134000;0.9591;2.0971;-2.8846;3.693
10.135000;0.9358;2.2844;-3.0226;3.903
10.135000;0.8323;2.4468;-3.0491;3.997
10.135000;0.7649;2.5008;-2.9048;3.909
10.136000;0.6879;2.5063;-2.6710;3.727
10.142000;0.5939;2.4920;-2.2715;3.424
10.146000;0.4996;2.4170;-1.7016;2.998
10.158000;0.3405;2.3160;-1.0616;2.570
10.159000;0.3084;2.1334;-0.5258;2.219
10.161000;0.1697;1.9659;0.0761;1.975
10.165000;0.0226;1.8157;0.6244;1.920
10.221000;-0.0772;1.6696;1.1603;2.035
10.222000;-0.1704;1.5153;1.6432;2.242
10.222000;-0.2536;1.3472;2.0615;2.476
10.222000;-0.2717;1.1892;2.4128;2.704
10.223000;-0.2353;1.0287;2.7358;2.932
10.223000;-0.1415;0.8608;2.9851;3.110
10.223000;-0.0728;0.7021;3.1607;3.239
10.224000;0.0046;0.6173;3.2700;3.328
10.224000;0.0747;0.5106;3.3560;3.395
10.224000;0.0781;0.4732;3.4043;3.438
10.225000;0.1061;0.4568;3.3649;3.397
10.225000;0.0866;0.4880;3.2927;3.330
10.229000;0.1082;0.5094;3.1879;3.230
10.238000;0.0821;0.5088;3.1436;3.186
10.239000;0.0916;0.6087;2.6077;2.679
10.244000;0.0980;0.6418;2.3669;2.454
10.249000;0.1079;0.6541;2.1174;2.219
10.254000;0.2022;0.6266;1.7251;1.847
10.258000;0.2414;0.6270;1.5200;1.662
10.263000;0.3136;0.5885;1.2939;1.456
10.270000;0.4111;0.4952;1.0418;1.225
10.273000;0.4671;0.4236;0.8282;1.041
10.278000;0.5532;0.3336;0.6769;0.936
10.282000;0.6171;0.2468;0.5377;0.855
10.310000;0.6757;0.1779;0.3936;0.802
10.311000;0.6933;0.1266;0.2758;0.757
10.311000;0.6631;0.0819;0.1768;0.691
10.311000;0.6547;0.0985;0.0322;0.663
10.311000;0.6563;0.0742;-0.1151;0.670
10.312000;0.6754;0.0476;-0.2534;0.723
10.321000;0.7124;0.0288;-0.3158;0.780
10.322000;0.7549;-0.0508;-0.3791;0.846
10.327000;0.7888;-0.1505;-0.3214;0.865
10.332000;0.7708;-0.2435;-0.1909;0.831
10.339000;0.7392;-0.3730;0.0843;0.832
10.342000;0.6512;-0.5036;0.4393;0.933
10.347000;0.5019;-0.6842;0.8244;1.183
10.354000;0.3155;-0.8630;1.2158;1.524
10.357000;0.1398;-0.9982;1.4179;1.740
10.363000;-0.0467;-1.1626;1.6677;2.033
10.366000;-0.2895;-1.3138;1.8411;2.280
10.386000;-0.5745;-1.4356;1.9526;2.491
10.387000;-0.7725;-1.5382;1.9476;2.599
10.387000;-0.8884;-1.6719;1.8906;2.676
10.388000;-0.9603;-1.7795;1.7891;2.700
10.390000;-0.9931;-1.8443;1.5975;2.634
10.395000;-0.9869;-1.8947;1.3686;2.537
10.402000;-0.9326;-1.8824;1.1357;2.388
10.405000;-0.8592;-1.8928;0.8699;2.253
10.410000;-0.8050;-1.8083;0.6023;2.069
10.415000;-0.7367;-1.7314;0.3518;1.914
10.421000;-0.6734;-1.6567;0.1804;1.797
10.425000;-0.5915;-1.5626;-0.0147;1.671
10.430000;-0.5009;-1.5060;-0.1907;1.599
10.435000;-0.4163;-1.4196;-0.3668;1.524
10.440000;-0.3522;-1.3626;-0.4739;1.485
10.444000;-0.3182;-1.2724;-0.5359;1.417
10.449000;-0.2906;-1.2421;-0.5531;1.390
10.454000;-0.2718;-1.1951;-0.5040;1.325
10.459000;-0.2708;-1.1841;-0.4341;1.290
10.464000;-0.3237;-1.1710;-0.3097;1.254
10.512000;-0.3655;-1.2110;-0.1550;1.274
10.513000;-0.4993;-1.2375;0.0637;1.336
10.513000;-0.5549;-1.2489;0.2557;1.390
10.513000;-0.6423;-1.2555;0.4069;1.468
10.514000;-0.6939;-1.2314;0.5198;1.506
10.514000;-0.7429;-1.1989;0.5993;1.532
10.514000;-0.7599;-1.1827;0.5406;1.506
10.515000;-0.7493;-1.1232;0.4635;1.428
10.515000;-0.7063;-1.0636;0.3104;1.314
10.515000;-0.6596;-0.9730;0.1391;1.184
10.518000;-0.5732;-0.8537;-0.1773;1.043
10.522000;-0.4807;-0.6647;-0.5120;0.967
10.528000;-0.3800;-0.5394;-0.8530;1.078
10.533000;-0.2832;-0.3483;-1.1552;1.239
10.539000;-0.1813;-0.1673;-1.3159;1.339
10.543000;-0.0939;0.0086;-1.5003;1.503
10.547000;-0.0142;0.1511;-1.7084;1.715
10.554000;0.0557;0.3032;-1.8278;1.854
10.559000;0.0678;0.4532;-1.9186;1.973
10.564000;0.0699;0.5509;-1.9425;2.020
10.567000;0.0521;0.6107;-1.9473;2.041
10.604000;-0.0025;0.6588;-1.9068;2.017
10.604000;-0.0729;0.7001;-1.8187;1.950
10.605000;-0.1923;0.6888;-1.7499;1.890
10.605000;-0.3009;0.6678;-1.6214;1.779
10.605000;-0.4608;0.6465;-1.5217;1.716
10.606000;-0.5901;0.6079;-1.4124;1.647
10.606000;-0.7391;0.5685;-1.3150;1.612
10.606000;-0.8236;0.5188;-1.2391;1.576
10.611000;-0.9153;0.4680;-1.1797;1.565
10.616000;-0.9754;0.4186;-1.1656;1.577
10.623000;-1.0208;0.3562;-1.1967;1.613
10.626000;-1.0776;0.3192;-1.1916;1.638
10.631000;-1.0550;0.2864;-1.2532;1.663
10.636000;-1.0557;0.3032;-1.3146;1.713
10.641000;-0.9746;0.2933;-1.3759;1.711
10.646000;-0.8788;0.3240;-1.4489;1.725
10.650000;-0.8044;0.4022;-1.5099;1.757
10.655000;-0.6964;0.4543;-1.5422;1.752
10.661000;-0.5432;0.5474;-1.5434;1.725
10.665000;-0.4189;0.6361;-1.5066;1.688
10.672000;-0.2853;0.7132;-1.4269;1.620
10.674000;-0.1761;0.7573;-1.3641;1.570
10.680000;-0.0578;0.7992;-1.2919;1.520
10.684000;0.0387;0.8368;-1.1578;1.429
10.725000;0.1421;0.8481;-1.0478;1.355
10.726000;0.2335;0.8810;-0.9786;1.337
10.726000;0.3129;0.8853;-0.8831;1.289
10.726000;0.3423;0.8944;-0.8261;1.265
10.727000;0.4295;0.9110;-0.8074;1.291
10.727000;0.4744;0.9350;-0.7960;1.316
10.728000;0.5108;0.9596;-0.7894;1.343
10.728000;0.5341;0.9800;-0.7807;1.362
10.728000;0.5665;1.0034;-0.7625;1.382
10.733000;0.5864;1.0205;-0.7277;1.384
10.739000;0.5915;1.0313;-0.6932;1.376
10.744000;0.5719;1.0476;-0.6924;1.380
10.748000;0.5229;1.0455;-0.6701;1.347
10.755000;0.4537;1.0465;-0.6480;1.312
10.758000;0.4049;1.0384;-0.6141;1.273
10.763000;0.3614;1.0212;-0.5253;1.204
10.768000;0.3348;0.9996;-0.4582;1.149
10.815000;0.2862;0.9922;-0.4078;1.110
10.816000;0.2419;0.9946;-0.2692;1.058
10.816000;0.2015;0.9512;-0.2166;0.996
10.816000;0.1721;0.9456;-0.1091;0.967
10.817000;0.1606;0.9274;-0.0040;0.941
10.817000;0.1598;0.8989;0.0940;0.918
10.817000;0.1360;0.8791;0.1944;0.911
10.818000;0.1638;0.8368;0.2854;0.899
10.818000;0.1736;0.8032;0.3644;0.899
10.819000;0.1826;0.7974;0.3791;0.902
10.821000;0.2173;0.7547;0.4466;0.903
10.828000;0.2779;0.7229;0.4951;0.919
10.831000;0.3552;0.6714;0.5461;0.935
10.840000;0.4182;0.6431;0.5542;0.946
10.841000;0.4743;0.5977;0.5816;0.959
10.846000;0.4977;0.5258;0.5899;0.934
10.851000;0.5360;0.4924;0.6197;0.956
10.887000;0.5202;0.4422;0.6854;0.967
10.888000;0.4861;0.3971;0.7605;0.986
10.889000;0.4145;0.3591;0.9264;1.077
10.889000;0.3654;0.3095;1.0730;1.175
10.890000;0.2886;0.2739;1.1909;1.256
10.890000;0.2486;0.2140;1.2969;1.338
10.890000;0.1666;0.1412;1.4197;1.436
10.890000;0.0618;0.0961;1.4711;1.476
10.895000;-0.0013;0.0401;1.5253;1.526
10.899000;-0.0946;0.0112;1.4556;1.459
10.905000;-0.2177;0.0139;1.4606;1.477
10.910000;-0.3157;-0.0282;1.5905;1.622
10.915000;-0.4386;0.0091;1.4557;1.520
10.921000;-0.5866;0.0087;1.3694;1.490
10.924000;-0.6949;0.0470;1.2456;1.427
10.929000;-0.8161;0.0764;1.0534;1.335
10.934000;-0.9430;0.1347;0.8311;1.264
10.939000;-1.0644;0.2103;0.6002;1.240
10.945000;-1.1017;0.2533;0.3965;1.198
10.950000;-1.0686;0.2666;0.1957;1.119
10.958000;-0.9900;0.2147;-0.0405;1.014
10.959000;-0.8312;0.1582;-0.2813;0.892
10.964000;-0.5641;0.0785;-0.4720;0.740
10.969000;-0.3050;0.0485;-0.5844;0.661
11.020000;-0.0766;-0.0009;-0.6166;0.621
11.021000;0.1411;-0.0200;-0.5620;0.580
11.021000;0.3016;-0.0177;-0.3877;0.492
11.021000;0.4341;0.0237;-0.0201;0.435
11.022000;0.4891;0.0446;0.4284;0.652
11.022000;0.5079;0.0401;0.9197;1.051
11.022000;0.5164;-0.0170;1.3133;1.411
11.022000;0.4921;-0.1416;1.7532;1.826
11.023000;0.3676;-0.2935;2.1822;2.232
11.023000;0.1429;-0.4667;2.5124;2.559
11.023000;-0.1093;-0.7072;2.7153;2.808
11.027000;-0.4402;-0.9035;2.8083;2.983
11.032000;-0.7202;-1.1164;2.8228;3.120
11.038000;-1.0233;-1.2772;2.6754;3.136
11.042000;-1.3117;-1.4102;2.3998;3.077
11.047000;-1.5005;-1.5658;2.0248;2.967
11.052000;-1.5843;-1.6558;1.6462;2.822
11.057000;-1.5699;-1.6748;1.2542;2.616
11.062000;-1.4380;-1.6536;0.9154;2.375
11.067000;-1.2671;-1.5679;0.7036;2.135
11.074000;-0.9941;-1.4341;0.6019;1.846
11.076000;-0.7400;-1.2593;0.5596;1.564
11.081000;-0.4403;-1.0839;0.6221;1.325
11.086000;-0.1427;-0.9108;0.7536;1.191
11.131000;0.1673;-0.7450;0.9229;1.198
11.132000;0.3715;-0.6564;1.1398;1.367
11.132000;0.4739;-0.6115;1.2872;1.502
11.133000;0.4809;-0.6015;1.3369;1.543
11.133000;0.3778;-0.7054;1.2151;1.455
11.134000;0.2384;-0.7797;1.0247;1.310
11.134000;0.0475;-0.9224;0.7159;1.169
11.134000;-0.1825;-1.0711;0.3674;1.147
11.134000;-0.4035;-1.1752;-0.0230;1.243
11.135000;-0.6305;-1.2605;-0.4482;1.479
11.143000;-0.7898;-1.2887;-0.8295;1.724
11.145000;-0.8203;-1.3097;-1.2219;1.970
11.150000;-0.8351;-1.3452;-1.5704;2.230
11.158000;-0.7542;-1.3042;-1.8608;2.394
11.160000;-0.6696;-1.2917;-2.1267;2.577
11.164000;-0.5663;-1.2029;-2.3276;2.681
11.170000;-0.4740;-1.1213;-2.4732;2.757
11.230000;-0.3800;-1.0473;-2.5853;2.815
11.232000;-0.3351;-0.8971;-2.6280;2.797
11.232000;-0.2738;-0.7525;-2.6040;2.724
11.232000;-0.1940;-0.6305;-2.5682;2.652
11.233000;-0.1155;-0.5287;-2.4969;2.555
11.233000;-0.0285;-0.4043;-2.4260;2.460
11.234000;0.0549;-0.3386;-2.3769;2.402
11.234000;0.1093;-0.2622;-2.3400;2.357
11.235000;0.1618;-0.1891;-2.2986;2.312
11.235000;0.1821;-0.1551;-2.2955;2.308
11.235000;0.1834;-0.1024;-2.2830;2.293
11.236000;0.1590;-0.0685;-2.2779;2.285
11.236000;0.1101;-0.0221;-2.2444;2.247
11.240000;0.0637;0.0036;-2.1967;2.198
11.243000;-0.0008;0.0427;-2.1781;2.179
11.248000;-0.0711;0.0213;-2.1359;2.137
11.253000;-0.1133;0.0569;-2.0416;2.046
11.259000;-0.1652;0.0514;-2.0027;2.010
11.262000;-0.1889;0.0264;-1.8972;1.907
11.268000;-0.1989;0.0133;-1.7852;1.796
11.309000;-0.2267;-0.0078;-1.6282;1.644
11.310000;-0.2609;-0.0248;-1.4646;1.488
11.310000;-0.2783;-0.0382;-1.2872;1.317
11.311000;-0.2866;-0.0846;-1.1077;1.147
11.311000;-0.2840;-0.1118;-0.9978;1.043
11.311000;-0.2425;-0.1341;-0.8524;0.896
11.311000;-0.2014;-0.1424;-0.7120;0.754
11.311000;-0.1254;-0.1821;-0.5767;0.618
11.314000;-0.0462;-0.1767;-0.3748;0.417
11.316000;0.0386;-0.1789;-0.1853;0.260
11.322000;0.1318;-0.1599;0.0517;0.214
11.327000;0.2340;-0.1054;0.2908;0.388
11.332000;0.3485;-0.0615;0.5082;0.619
11.336000;0.4424;0.0004;0.7113;0.838
11.342000;0.4934;0.0921;0.8405;0.979
11.346000;0.5045;0.1536;0.8697;1.017
11.350000;0.5465;0.1682;0.8706;1.042
11.358000;0.5553;0.2200;0.7956;0.995
11.360000;0.5747;0.2541;0.6423;0.899
11.365000;0.6146;0.3211;0.4512;0.827
11.370000;0.6587;0.3808;0.1985;0.786
11.409000;0.6451;0.4456;-0.0968;0.790
11.410000;0.6549;0.4971;-0.3584;0.897
11.410000;0.7090;0.5696;-0.5912;1.085
11.411000;0.7110;0.6318;-0.7237;1.195
11.411000;0.6766;0.6532;-0.8325;1.256
11.411000;0.6626;0.6863;-0.8796;1.298
11.411000;0.6827;0.7144;-0.8506;1.304
11.411000;0.6765;0.7251;-0.7550;1.246
11.415000;0.6146;0.7086;-0.6122;1.120
11.419000;0.5468;0.7194;-0.4076;0.991
11.425000;0.4347;0.7145;-0.2060;0.861
11.429000;0.3354;0.7000;-0.0189;0.776
11.434000;0.2229;0.6639;0.1702;0.721
11.439000;0.1498;0.6199;0.3307;0.718
11.444000;0.0755;0.5634;0.4217;0.708
11.449000;-0.1268;0.5228;0.5415;0.763
11.453000;-0.3211;0.5358;0.6876;0.929
11.459000;-0.4546;0.4998;0.8147;1.058
11.464000;-0.5421;0.5075;0.9849;1.234
11.468000;-0.6292;0.5061;1.0789;1.348
11.508000;-0.6731;0.4690;1.2113;1.463
11.509000;-0.6496;0.4270;1.2532;1.475
11.509000;-0.6642;0.4350;1.2717;1.499
11.509000;-0.6660;0.4739;1.2907;1.528
11.510000;-0.6265;0.4482;1.2384;1.458
11.510000;-0.5452;0.5113;1.2392;1.447
11.510000;-0.4721;0.5535;1.1615;1.371
11.510000;-0.4307;0.6183;1.1225;1.352
11.512000;-0.4289;0.6457;1.1077;1.352
11.517000;-0.4738;0.6604;1.1123;1.378
11.528000;-0.5635;0.6863;1.1864;1.482
11.528000;-0.7531;0.7306;1.3466;1.707
11.531000;-0.9241;0.7022;1.5213;1.913
11.537000;-1.0549;0.6559;1.7750;2.166
11.541000;-1.1698;0.5766;2.0289;2.412
11.547000;-1.1871;0.4713;2.2473;2.585
11.552000;-1.1191;0.3584;2.3970;2.670
11.560000;-1.0579;0.2498;2.4877;2.715
11.569000;-0.9432;0.1882;2.4336;2.617
11.569000;-0.7929;0.1714;2.0986;2.250
11.571000;-0.6732;0.1493;2.2335;2.337
11.616000;-0.4677;0.1616;1.8717;1.936
11.616000;-0.3246;0.1754;1.5491;1.592
11.617000;-0.0975;0.1206;1.3153;1.324
11.617000;0.1101;0.0247;1.0242;1.030
11.617000;0.2887;-0.0725;0.7687;0.824
11.618000;0.4428;-0.1321;0.6297;0.781
11.618000;0.5824;-0.1577;0.5588;0.822
11.618000;0.6476;-0.1421;0.5273;0.847
11.618000;0.6742;-0.1616;0.6092;0.923
11.621000;0.7033;-0.1684;0.7396;1.034
11.629000;0.6966;-0.1844;0.8779;1.136
11.630000;0.6901;-0.2049;1.0649;1.285
11.635000;0.6122;-0.2810;1.2385;1.410
11.641000;0.6110;-0.3317;1.4610;1.618
11.644000;0.6053;-0.3987;1.6919;1.841
11.650000;0.5638;-0.5136;1.8812;2.030
11.655000;0.5292;-0.5816;2.0890;2.232
11.661000;0.4680;-0.6585;2.2031;2.347
11.664000;0.3561;-0.7143;2.3027;2.437
11.669000;0.2269;-0.7662;2.3331;2.466
11.709000;0.0876;-0.8008;2.2921;2.430
11.710000;-0.0137;-0.8590;2.1871;2.350
11.711000;-0.1174;-0.9177;1.9775;2.183
11.711000;-0.1876;-0.9649;1.7306;1.990
11.711000;-0.2239;-1.0626;1.4725;1.830
11.712000;-0.2260;-1.1394;1.2056;1.674
11.712000;-0.2817;-1.1144;0.9038;1.462
11.712000;-0.3601;-1.0210;0.5885;1.232
11.713000;-0.4813;-0.8922;0.3244;1.064
11.718000;-0.6012;-0.8015;0.1040;1.007
11.723000;-0.6900;-0.7505;-0.1420;1.029
11.729000;-0.7058;-0.7487;-0.3371;1.083
11.733000;-0.6829;-0.7786;-0.5316;1.164
11.738000;-0.6056;-0.8180;-0.6898;1.230
11.742000;-0.5654;-0.8742;-0.8045;1.316
11.748000;-0.4525;-0.8823;-0.9356;1.363
11.753000;-0.3168;-0.8758;-0.9590;1.337
11.759000;-0.1817;-0.8403;-0.9559;1.286
11.763000;-0.1161;-0.7924;-0.9552;1.246
11.767000;-0.0813;-0.7224;-0.9235;1.175
11.772000;-0.0530;-0.6640;-0.9062;1.125
11.777000;-0.0545;-0.6693;-0.8866;1.112
11.782000;-0.0474;-0.6521;-0.8601;1.080
11.787000;0.0048;-0.7364;-0.8100;1.095
11.843000;0.0422;-0.7960;-0.7124;1.069
11.843000;0.0317;-0.8330;-0.6438;1.053
11.844000;0.0283;-0.8598;-0.5060;0.998
11.844000;0.0177;-0.9005;-0.4618;1.012
11.844000;0.0140;-0.9152;-0.3888;0.994
11.844000;0.0602;-0.8920;-0.3875;0.974
11.845000;0.0849;-0.8983;-0.4338;1.001
11.845000;0.1124;-0.8650;-0.5181;1.015
11.845000;0.1357;-0.8425;-0.5948;1.040
11.846000;0.1526;-0.8068;-0.7358;1.103
11.846000;0.1557;-0.7031;-0.8428;1.109
11.847000;0.1788;-0.6028;-0.9543;1.143
11.851000;0.1644;-0.4938;-1.1180;1.233
11.855000;0.1817;-0.4213;-1.2505;1.332
11.860000;0.1924;-0.3203;-1.3469;1.398
11.865000;0.1890;-0.2433;-1.4480;1.480
11.870000;0.1570;-0.1446;-1.4868;1.502
11.876000;0.1555;-0.0888;-1.4874;1.498
11.883000;0.1917;-0.0709;-1.5048;1.519
11.884000;0.2416;-0.0119;-1.5103;1.530
11.930000;0.3319;0.0618;-1.4873;1.525
11.930000;0.4014;0.1286;-1.5121;1.570
11.931000;0.4506;0.2437;-1.5491;1.632
11.931000;0.4730;0.2637;-1.5338;1.627
11.931000;0.4450;0.3270;-1.5617;1.657
11.931000;0.4050;0.3840;-1.5661;1.663
11.932000;0.3554;0.4534;-1.5540;1.657
11.932000;0.2788;0.5185;-1.5708;1.678
11.932000;0.1725;0.5481;-1.5830;1.684
11.933000;0.1077;0.6401;-1.5857;1.713
11.939000;0.0125;0.6868;-1.5862;1.729
11.944000;-0.0109;0.7742;-1.5985;1.776
11.948000;0.0038;0.8256;-1.6252;1.823
11.953000;-0.0034;0.8914;-1.6208;1.850
11.960000;0.0199;0.9689;-1.6090;1.878
11.963000;0.0807;1.0556;-1.5590;1.885
11.967000;0.1289;1.1468;-1.5137;1.903
11.973000;0.2099;1.2162;-1.4804;1.927
12.012000;0.2619;1.2779;-1.4684;1.964
12.013000;0.3543;1.3705;-1.4780;2.046
12.013000;0.4253;1.4079;-1.4683;2.078
12.014000;0.5012;1.4361;-1.4612;2.109
12.014000;0.5389;1.4742;-1.4494;2.136
12.014000;0.6127;1.5057;-1.4306;2.166
12.015000;0.6652;1.5118;-1.4671;2.209
12.015000;0.7154;1.5020;-1.4248;2.190
12.016000;0.7061;1.5053;-1.4092;2.180
12.021000;0.6613;1.4882;-1.3366;2.107
12.026000;0.5618;1.4487;-1.1999;1.963
12.031000;0.4553;1.4009;-1.0709;1.821
12.036000;0.3776;1.3137;-0.9041;1.639
12.042000;0.3571;1.1891;-0.7640;1.458
12.047000;0.2764;1.0987;-0.6194;1.291
12.051000;0.2262;1.0182;-0.4726;1.145
12.056000;0.1973;0.9378;-0.3618;1.024
12.062000;0.1323;0.9025;-0.2678;0.951
12.066000;0.0911;0.8599;-0.2096;0.890
12.070000;0.0161;0.8288;-0.1251;0.838
12.126000;-0.0493;0.7805;-0.0836;0.787
12.127000;-0.1053;0.7915;-0.0300;0.799
12.127000;-0.1686;0.7685;-0.0026;0.787
12.127000;-0.1770;0.8071;-0.0037;0.826
12.128000;-0.2186;0.8332;0.0239;0.862
12.128000;-0.2529;0.8612;0.0301;0.898
12.128000;-0.2533;0.8863;0.0317;0.922
12.128000;-0.2128;0.9563;0.0071;0.980
12.129000;-0.2291;1.0165;0.0495;1.043
12.129000;-0.2547;1.0617;0.0227;1.092
12.129000;-0.2897;1.0852;0.0653;1.125
12.129000;-0.2817;1.0988;0.0577;1.136
12.134000;-0.2712;1.1170;0.0358;1.150
12.139000;-0.2490;1.1662;0.0403;1.193
12.144000;-0.2269;1.1816;-0.0340;1.204
12.148000;-0.2195;1.2232;-0.0197;1.243
12.154000;-0.2050;1.2862;-0.0580;1.304
12.160000;-0.1886;1.3180;-0.0413;1.332
12.164000;-0.2157;1.3380;0.0017;1.355
12.168000;-0.2388;1.3437;0.0565;1.366
12.173000;-0.2437;1.3686;0.1663;1.400
12.216000;-0.2093;1.3790;0.2544;1.418
12.216000;-0.2144;1.3532;0.3521;1.415
12.217000;-0.1755;1.3366;0.4975;1.437
12.217000;-0.1164;1.3122;0.6382;1.464
12.217000;-0.0635;1.2797;0.7575;1.488
12.217000;0.0175;1.2222;0.8483;1.488
12.218000;0.0292;1.1805;0.9344;1.506
12.218000;0.0248;1.1236;0.9920;1.499
12.218000;0.0121;1.0756;1.0305;1.490
12.222000;-0.0230;1.0318;1.0764;1.491
12.229000;-0.0948;0.9949;1.0960;1.483
12.232000;-0.1242;0.9269;1.3283;1.624
12.237000;-0.2045;0.8378;1.0369;1.349
12.242000;-0.2635;0.8066;0.9441;1.269
12.247000;-0.3228;0.6565;1.1141;1.333
12.252000;-0.3659;0.5385;1.0901;1.270
12.257000;-0.4100;0.3785;1.1042;1.237
12.263000;-0.4387;0.2290;1.1133;1.218
12.270000;-0.4625;0.0922;1.1916;1.282
12.271000;-0.4249;-0.0774;1.2650;1.337
12.320000;-0.3676;-0.2319;1.4265;1.491
12.321000;-0.3492;-0.3544;1.6091;1.684
12.321000;-0.3470;-0.4640;1.7745;1.867
12.321000;-0.3710;-0.5010;1.9394;2.037
12.322000;-0.4067;-0.5418;2.1492;2.253
12.322000;-0.4230;-0.5962;2.3704;2.481
12.322000;-0.3496;-0.6692;2.5649;2.674
12.322000;-0.3103;-0.7513;2.7257;2.844
12.323000;-0.2586;-0.8882;2.8025;2.951
12.323000;-0.2318;-1.0056;2.8387;3.020
12.330000;-0.2595;-1.1135;2.7816;3.007
12.331000;-0.3216;-1.2473;2.6314;2.930
12.335000;-0.3834;-1.3639;2.4574;2.837
12.340000;-0.4969;-1.4436;2.2523;2.721
12.347000;-0.5682;-1.5415;2.0043;2.592
12.350000;-0.6689;-1.5998;1.7658;2.475
12.355000;-0.7706;-1.6640;1.5369;2.393
12.361000;-0.7896;-1.6623;1.2530;2.226
12.364000;-0.8124;-1.6812;1.0384;2.136
12.369000;-0.8393;-1.6345;0.7618;1.989
12.374000;-0.8375;-1.6206;0.5356;1.901
12.403000;-0.7697;-1.5870;0.3239;1.793
12.403000;-0.6919;-1.5268;0.1435;1.682
12.404000;-0.6167;-1.4736;-0.0462;1.598
12.404000;-0.5692;-1.3894;-0.1760;1.512
12.404000;-0.4831;-1.2715;-0.3199;1.397
12.404000;-0.4719;-1.1678;-0.3945;1.320
12.410000;-0.4831;-1.0471;-0.4428;1.235
12.413000;-0.5195;-0.9310;-0.3884;1.135
12.419000;-0.5192;-0.8387;-0.2983;1.031
12.424000;-0.5158;-0.8109;-0.1391;0.971
12.429000;-0.5046;-0.7762;0.0152;0.926
12.433000;-0.5255;-0.8187;0.2005;0.993
12.438000;-0.4969;-0.8501;0.3762;1.054
12.443000;-0.4609;-0.9119;0.5139;1.144
12.449000;-0.4261;-1.0160;0.6040;1.256
12.453000;-0.3364;-1.1055;0.6158;1.309
12.458000;-0.3109;-1.1467;0.6041;1.333
12.463000;-0.2551;-1.1780;0.4998;1.305
12.470000;-0.2114;-1.1875;0.3985;1.270
12.472000;-0.1673;-1.1869;0.2620;1.227
12.527000;-0.1273;-1.2047;0.0616;1.213
12.528000;-0.1153;-1.1950;-0.1671;1.212
12.528000;-0.0716;-1.1720;-0.4143;1.245
12.529000;-0.0632;-1.1449;-0.6587;1.322
12.529000;-0.0214;-1.1205;-0.9505;1.469
12.530000;0.0318;-1.0722;-1.1965;1.607
12.530000;0.1009;-1.0143;-1.4112;1.741
12.530000;0.1254;-0.9895;-1.6185;1.901
12.530000;0.1909;-0.9476;-1.7563;2.005
12.531000;0.2561;-0.8980;-1.9419;2.155
12.531000;0.3061;-0.8552;-1.9816;2.180
12.531000;0.3331;-0.8144;-1.9664;2.154
12.536000;0.3386;-0.8045;-1.8771;2.070
12.541000;0.3483;-0.7565;-1.8310;2.012
12.546000;0.4333;-0.7112;-1.7419;1.931
12.551000;0.4934;-0.7069;-1.6863;1.894
12.555000;0.5216;-0.6508;-1.6162;1.819
12.562000;0.5689;-0.6073;-1.5843;1.790
12.567000;0.5975;-0.6122;-1.5428;1.764
12.570000;0.5941;-0.6074;-1.5108;1.733
12.575000;0.6379;-0.5977;-1.5482;1.778
12.612000;0.6484;-0.5611;-1.5116;1.738
12.612000;0.6669;-0.5354;-1.4824;1.711
12.612000;0.6773;-0.4965;-1.4656;1.689
12.613000;0.6278;-0.4750;-1.4253;1.628
12.613000;0.5814;-0.4612;-1.3998;1.584
12.613000;0.5361;-0.4358;-1.3511;1.517
12.614000;0.4489;-0.3869;-1.3076;1.436
12.614000;0.3388;-0.3601;-1.2432;1.338
12.619000;0.1720;-0.2909;-1.1507;1.199
12.624000;0.0124;-0.2800;-1.0443;1.081
12.628000;-0.0687;-0.2371;-0.9311;0.963
12.633000;-0.1078;-0.2363;-0.8493;0.888
12.639000;-0.1295;-0.1949;-0.7747;0.809
12.646000;-0.1366;-0.1418;-0.7169;0.743
12.649000;-0.1440;-0.0752;-0.6972;0.716
12.653000;-0.1781;0.0213;-0.6677;0.691
12.658000;-0.2152;0.1380;-0.7000;0.745
12.663000;-0.2219;0.2078;-0.6986;0.762
12.668000;-0.2369;0.3072;-0.7828;0.874
12.673000;-0.2314;0.3957;-0.8595;0.974
12.718000;-0.1889;0.5142;-0.8856;1.041
12.720000;-0.1459;0.5816;-0.9355;1.111
12.720000;-0.1145;0.6913;-0.8967;1.138
12.720000;-0.0759;0.7669;-0.8722;1.164
12.721000;-0.0398;0.8971;-0.8310;1.223
12.721000;-0.0133;1.0218;-0.7778;1.284
12.721000;0.0737;1.1413;-0.7436;1.364
12.721000;0.1211;1.2318;-0.6856;1.415
12.722000;0.1824;1.3434;-0.6395;1.499
12.722000;0.2462;1.4071;-0.5744;1.540
12.727000;0.2891;1.4853;-0.5166;1.599
12.732000;0.3376;1.5040;-0.4326;1.601
12.737000;0.3753;1.5182;-0.3297;1.598
12.741000;0.3904;1.5087;-0.2795;1.583
12.747000;0.3446;1.5163;-0.2008;1.568
12.751000;0.2857;1.4715;-0.0721;1.501
12.756000;0.2543;1.4650;0.0159;1.487
12.762000;0.2501;1.4104;0.0751;1.434
12.768000;0.2277;1.3987;0.1391;1.424
12.771000;0.1772;1.3722;0.1959;1.397
12.775000;0.1699;1.3308;0.2671;1.368
12.809000;0.1246;1.3247;0.3145;1.367
12.809000;0.1008;1.3109;0.3213;1.353
12.810000;0.1010;1.2800;0.3378;1.328
12.810000;0.1422;1.2677;0.3639;1.327
12.810000;0.1359;1.2573;0.3710;1.318
12.811000;0.1155;1.2559;0.3853;1.319
12.811000;0.0709;1.2351;0.4595;1.320
12.815000;0.0234;1.2022;0.5265;1.313
12.820000;-0.0512;1.1906;0.5599;1.317
12.824000;-0.0120;1.1547;0.6054;1.304
12.830000;-0.0099;1.1301;0.6677;1.313
12.835000;-0.0018;1.0882;0.7372;1.314
12.840000;0.0361;1.0313;0.8093;1.311
12.845000;0.0917;0.9953;0.8670;1.323
12.850000;0.1172;0.9658;0.9464;1.357
12.854000;0.1412;0.9404;0.9876;1.371
12.859000;0.1302;0.9027;1.0647;1.402
12.864000;0.1797;0.8693;1.1203;1.429
12.868000;0.1779;0.8452;1.1784;1.461
12.873000;0.1943;0.8090;1.2197;1.476
12.921000;0.2054;0.7463;1.2371;1.459
12.922000;0.2230;0.6788;1.2714;1.458
12.922000;0.2329;0.6520;1.3295;1.499
12.923000;0.1874;0.6298;1.3518;1.503
12.923000;0.0992;0.5481;1.2689;1.386
12.923000;0.0834;0.5957;1.0928;1.247
12.923000;0.0644;0.5215;1.1990;1.309
12.924000;0.0405;0.4599;1.0061;1.107
12.924000;0.0356;0.3855;0.8179;0.905
12.924000;-0.0122;0.2695;0.7419;0.789
12.928000;-0.0121;0.1630;0.6223;0.643
12.933000;-0.0625;0.0162;0.5119;0.516
12.938000;-0.1161;-0.1204;0.4700;0.499
12.944000;-0.1188;-0.2321;0.5255;0.587
12.947000;-0.1980;-0.3763;0.6565;0.782
12.952000;-0.2421;-0.5413;0.8680;1.051
12.957000;-0.3236;-0.6987;1.0953;1.339
12.963000;-0.3327;-0.8511;1.3385;1.621
12.967000;-0.3484;-1.0016;1.5285;1.860
12.972000;-0.3396;-1.1556;1.6990;2.083
12.980000;-0.3821;-1.2897;1.8860;2.316
12.981000;-0.4014;-1.3801;2.0368;2.493
12.986000;-0.4516;-1.4130;2.1277;2.594
12.991000;-0.4651;-1.4267;2.1922;2.657
13.038000;-0.4959;-1.4266;2.2663;2.723
13.040000;-0.5217;-1.3957;2.2712;2.716
13.040000;-0.5273;-1.3899;2.2403;2.689
13.040000;-0.5074;-1.3871;2.1427;2.602
13.041000;-0.4641;-1.3761;1.9714;2.449
13.041000;-0.3709;-1.4401;1.7956;2.331
13.041000;-0.2425;-1.4671;1.5702;2.163
13.042000;-0.1244;-1.4640;1.3428;1.990
13.042000;-0.0129;-1.4379;1.1088;1.816
13.042000;0.1178;-1.4126;0.8633;1.660
13.046000;0.1568;-1.3452;0.7140;1.531
13.050000;0.1225;-1.2549;0.6440;1.416
13.056000;0.0443;-1.2019;0.6128;1.350
13.063000;0.0313;-1.1839;0.6537;1.353
13.065000;0.1439;-1.2133;0.6424;1.380
13.070000;0.2838;-1.2495;0.6172;1.422
13.074000;0.4457;-1.2550;0.5401;1.437
13.108000;0.6041;-1.2037;0.4087;1.407
13.108000;0.7283;-1.1483;0.2732;1.387
13.109000;0.8144;-1.0409;0.1027;1.326
13.109000;0.8585;-0.9501;-0.0935;1.284
13.109000;0.9184;-0.8205;-0.2580;1.258
13.109000;0.9560;-0.7419;-0.5011;1.310
13.110000;0.9810;-0.6684;-0.7318;1.395
13.116000;1.0085;-0.5938;-0.9290;1.494
13.120000;0.9646;-0.5488;-1.1048;1.566
13.124000;0.9307;-0.5134;-1.2139;1.613
13.129000;0.8880;-0.5016;-1.3114;1.661
13.133000;0.7838;-0.5033;-1.3116;1.609
13.138000;0.6685;-0.5209;-1.3244;1.572
13.145000;0.5254;-0.5478;-1.2468;1.460
13.149000;0.4052;-0.5839;-1.1221;1.328
13.154000;0.2837;-0.6514;-0.9884;1.217
13.159000;0.1394;-0.6838;-0.8719;1.117
13.163000;0.0409;-0.7414;-0.7509;1.056
13.168000;-0.0502;-0.8012;-0.6421;1.028
13.173000;-0.0914;-0.8257;-0.5666;1.006
13.181000;-0.1164;-0.8082;-0.5102;0.963
13.184000;-0.0896;-0.8140;-0.5013;0.960
13.187000;-0.0633;-0.7549;-0.4776;0.896
13.252000;0.0003;-0.7102;-0.5563;0.902
13.254000;0.0800;-0.6392;-0.6583;0.921
13.255000;0.2019;-0.5445;-0.8075;0.995
13.255000;0.3493;-0.4044;-0.9990;1.133
13.255000;0.5080;-0.2782;-1.1733;1.308
13.256000;0.6852;-0.1318;-1.3279;1.500
13.257000;0.8427;0.0258;-1.4632;1.689
13.257000;0.9305;0.1783;-1.5791;1.842
13.258000;1.0157;0.3144;-1.6783;1.987
13.258000;1.0578;0.3844;-1.7871;2.112
13.258000;1.1287;0.4507;-1.8721;2.232
13.259000;1.1020;0.4968;-1.9381;2.284
13.259000;0.9782;0.4919;-1.9781;2.261
13.260000;0.8031;0.4673;-2.0327;2.235
13.261000;0.5955;0.4112;-2.0422;2.167
13.267000;0.3938;0.3477;-2.0640;2.130
13.271000;0.1714;0.2647;-1.9595;1.985
13.275000;-0.0624;0.2148;-1.8363;1.850
13.281000;-0.2818;0.0662;-1.6372;1.663
13.285000;-0.4584;-0.0095;-1.4888;1.558
13.290000;-0.5833;-0.1155;-1.2809;1.412
13.336000;-0.6688;-0.1827;-1.0854;1.288
13.337000;-0.7150;-0.2119;-0.9546;1.211
13.337000;-0.7411;-0.2273;-0.8837;1.175
13.337000;-0.7018;-0.2341;-0.7075;1.024
13.338000;-0.6640;-0.1729;-0.5601;0.886
13.338000;-0.5970;-0.0773;-0.4556;0.755
13.338000;-0.5194;0.0024;-0.3893;0.649
13.338000;-0.4168;0.0778;-0.3084;0.524
13.339000;-0.2866;0.1566;-0.3015;0.444
13.339000;-0.2146;0.2289;-0.3422;0.464
13.345000;-0.1339;0.3118;-0.3610;0.495
13.349000;-0.0462;0.3936;-0.3844;0.552
13.354000;0.0221;0.4770;-0.4029;0.625
13.359000;0.1383;0.5242;-0.4619;0.712
13.364000;0.2117;0.5880;-0.4682;0.781
13.369000;0.2739;0.6778;-0.4601;0.864
13.373000;0.3105;0.7055;-0.4233;0.879
13.397000;0.3553;0.7405;-0.3961;0.912
13.397000;0.3916;0.7325;-0.3594;0.905
13.398000;0.3762;0.7724;-0.3179;0.916
13.398000;0.3160;0.7978;-0.2597;0.897
13.398000;0.2586;0.8232;-0.1801;0.881
13.403000;0.2302;0.8625;-0.1100;0.899
13.408000;0.2287;0.9465;-0.0852;0.977
13.413000;0.1868;0.9748;-0.1034;0.998
13.418000;0.1618;0.9617;-0.0998;0.980
13.422000;0.2298;0.9982;-0.1177;1.031
13.427000;0.2591;1.0509;-0.1689;1.095
13.432000;0.2783;1.1176;-0.2081;1.170
13.437000;0.3133;1.1985;-0.1564;1.249
13.442000;0.3209;1.2769;-0.1240;1.322
13.448000;0.3628;1.3433;-0.1227;1.397
13.452000;0.4222;1.3978;-0.0115;1.460
13.457000;0.4726;1.4431;0.1376;1.525
13.466000;0.5379;1.4837;0.2601;1.599
13.467000;0.5631;1.5266;0.3872;1.673
13.474000;0.5580;1.5146;0.5332;1.700
13.477000;0.5609;1.5171;0.7100;1.766
13.539000;0.5625;1.4885;0.8842;1.820
13.540000;0.5900;1.4574;1.0439;1.887
13.541000;0.5984;1.4262;1.2273;1.974
13.541000;0.6079;1.3803;1.3653;2.034
13.541000;0.5855;1.3029;1.4435;2.031
13.541000;0.5369;1.2276;1.5003;2.011
13.542000;0.4864;1.1735;1.5547;2.008
13.542000;0.4275;1.1526;1.5926;2.012
13.542000;0.3938;1.0976;1.6043;1.983
13.542000;0.3611;1.0662;1.5899;1.948
13.543000;0.3508;0.9933;1.5782;1.897
13.543000;0.2929;0.9316;1.4665;1.762
13.544000;0.2874;0.9145;1.3718;1.674
13.545000;0.2647;0.8704;1.2369;1.535
13.550000;0.2340;0.8494;1.1359;1.438
13.555000;0.2089;0.8540;0.9803;1.317
13.559000;0.1440;0.8198;0.8609;1.197
13.565000;0.0580;0.8712;0.5626;1.039
13.569000;-0.1017;0.8075;0.8241;1.158
13.574000;-0.2399;0.7887;0.6935;1.077
13.620000;-0.3782;0.7786;0.5657;1.034
13.621000;-0.5266;0.7318;0.6079;1.087
13.621000;-0.6086;0.6767;0.5525;1.065
13.621000;-0.7134;0.6083;0.5261;1.075
13.621000;-0.7888;0.5167;0.4309;1.037
13.622000;-0.8232;0.4429;0.3337;0.993
13.622000;-0.8621;0.3917;0.1581;0.960
13.622000;-0.9057;0.3877;0.0570;0.987
13.622000;-0.9659;0.3832;-0.1037;1.044
13.623000;-1.0211;0.3815;-0.2117;1.110
13.629000;-1.0692;0.3374;-0.2792;1.155
13.633000;-1.1082;0.3093;-0.3041;1.190
13.638000;-1.0933;0.2278;-0.3319;1.165
13.643000;-1.0630;0.1438;-0.2911;1.111
13.648000;-0.9865;0.0524;-0.2510;1.019
13.653000;-0.8803;-0.0816;-0.1759;0.901
13.657000;-0.7183;-0.2343;-0.0301;0.756
13.667000;-0.5312;-0.4197;0.1099;0.686
13.669000;-0.3933;-0.6237;0.3732;0.826
13.673000;-0.2605;-0.8149;0.6091;1.050
13.677000;-0.2090;-1.0126;0.8965;1.368
13.732000;-0.2133;-1.1500;1.1901;1.669
13.733000;-0.2631;-1.2635;1.4733;1.959
13.733000;-0.4044;-1.3536;1.7032;2.213
13.733000;-0.5505;-1.4187;1.9112;2.443
13.734000;-0.7241;-1.4502;2.0355;2.602
13.734000;-0.8821;-1.4655;2.0978;2.707
13.735000;-1.0314;-1.4823;2.0745;2.750
13.735000;-1.1338;-1.4865;1.9632;2.711
13.736000;-1.1966;-1.4931;1.7908;2.621
13.736000;-1.1723;-1.4905;1.4328;2.377
13.736000;-1.1256;-1.4331;1.0092;2.083
13.737000;-1.0327;-1.3658;0.5244;1.791
13.741000;-0.9128;-1.2353;0.0741;1.538
13.746000;-0.8163;-1.0694;-0.2800;1.374
13.751000;-0.7153;-0.8841;-0.5860;1.279
13.755000;-0.5629;-0.7481;-0.9038;1.301
13.761000;-0.4555;-0.6083;-1.1380;1.368
13.766000;-0.3461;-0.4809;-1.2841;1.414
13.770000;-0.2881;-0.3704;-1.3445;1.424
13.775000;-0.2866;-0.2697;-1.3673;1.423
13.783000;-0.3110;-0.1979;-1.3406;1.390
13.786000;-0.3139;-0.2123;-1.2906;1.345
13.790000;-0.3596;-0.2681;-1.2124;1.293
13.795000;-0.3737;-0.3510;-1.0870;1.202
13.843000;-0.4253;-0.5141;-0.9739;1.181
13.844000;-0.4996;-0.6904;-0.8755;1.222
13.845000;-0.5316;-0.8562;-0.8013;1.288
13.845000;-0.6120;-1.0261;-0.7225;1.396
13.845000;-0.6683;-1.1932;-0.6391;1.510
13.846000;-0.6933;-1.2859;-0.6561;1.601
13.846000;-0.7294;-1.3619;-0.6659;1.682
13.846000;-0.7647;-1.4282;-0.6828;1.758
13.847000;-0.7198;-1.4231;-0.7164;1.748
13.847000;-0.6519;-1.4493;-0.8190;1.788
13.848000;-0.5703;-1.4043;-0.9645;1.797
13.854000;-0.4486;-1.3787;-1.1335;1.840
13.858000;-0.3055;-1.3367;-1.3382;1.916
13.866000;-0.1199;-1.2802;-1.4900;1.968
13.868000;0.0717;-1.2474;-1.5987;2.029
13.874000;0.2161;-1.2399;-1.6787;2.098
13.878000;0.3482;-1.1575;-1.6657;2.058
13.918000;0.4055;-1.0977;-1.6100;1.990
13.919000;0.4136;-1.0562;-1.5139;1.892
13.919000;0.4442;-0.9902;-1.4109;1.780
13.920000;0.4087;-0.9429;-1.2172;1.593
13.920000;0.3310;-0.9461;-1.0381;1.443
13.920000;0.2231;-0.9019;-0.8543;1.262
13.921000;0.1208;-0.9015;-0.6705;1.130
13.921000;0.0795;-0.9524;-0.5130;1.085
13.922000;0.0280;-0.9373;-0.4318;1.032
13.927000;-0.0119;-0.9259;-0.3553;0.992
13.932000;-0.0324;-0.9468;-0.3598;1.013
13.937000;-0.0903;-0.8827;-0.3521;0.955
13.942000;-0.1300;-0.8432;-0.4183;0.950
13.947000;-0.2059;-0.7998;-0.4938;0.962
13.952000;-0.2289;-0.7040;-0.5596;0.928
13.956000;-0.2469;-0.6755;-0.6588;0.975
13.962000;-0.2071;-0.6464;-0.8177;1.063
13.968000;-0.1577;-0.5571;-0.8737;1.048
13.973000;-0.1132;-0.5121;-0.9729;1.105
13.977000;-0.0529;-0.4446;-0.9982;1.094
13.982000;-0.0416;-0.3875;-0.9926;1.066
13.986000;-0.0037;-0.3241;-0.9491;1.003
13.994000;0.0340;-0.2521;-0.8031;0.842
13.998000;0.0394;-0.1625;-0.7077;0.727
14.001000;0.0459;-0.1294;-0.5408;0.558
14.005000;0.0292;-0.0414;-0.3813;0.385
14.010000;-0.0324;0.0679;-0.2483;0.259
14.060000;-0.1915;0.1499;-0.1104;0.267
14.060000;-0.3024;0.2379;0.0180;0.385
14.061000;-0.4346;0.3411;0.2277;0.598
14.061000;-0.5518;0.4305;0.3491;0.782
14.061000;-0.6041;0.4411;0.4612;0.879
14.061000;-0.5983;0.4756;0.5401;0.936
14.062000;-0.5145;0.5194;0.5645;0.924
14.062000;-0.4046;0.5273;0.5105;0.838
14.062000;-0.2777;0.5856;0.4115;0.768
14.062000;-0.1381;0.6587;0.2604;0.722
14.064000;-0.0378;0.7543;0.1528;0.771
14.072000;0.0279;0.8560;-0.0022;0.856
14.074000;0.0809;1.0193;-0.1976;1.041
14.079000;0.1381;1.1658;-0.3498;1.225
14.084000;0.1759;1.2908;-0.4635;1.383
14.089000;0.2083;1.3873;-0.5461;1.505
14.093000;0.2376;1.5154;-0.6645;1.672
14.129000;0.2492;1.5410;-0.7733;1.742
14.129000;0.2569;1.5815;-0.8151;1.798
14.129000;0.2692;1.6037;-0.8116;1.817
14.130000;0.2187;1.6049;-0.7508;1.785
14.130000;0.1906;1.6568;-0.7500;1.829
14.130000;0.1125;1.6469;-0.6322;1.768
14.130000;0.1010;1.6491;-0.4645;1.716
14.133000;0.0937;1.6392;-0.3328;1.675
14.138000;0.0764;1.6382;-0.1773;1.650
14.142000;0.0372;1.6271;0.0044;1.627
14.153000;0.0054;1.5957;0.1382;1.602
14.153000;0.0053;1.5656;0.2386;1.584
14.156000;-0.0270;1.5678;0.2579;1.589
14.162000;-0.0718;1.5786;0.2726;1.604
14.232000;-0.1309;1.5217;0.2539;1.548
14.235000;-0.1923;1.5072;0.2474;1.539
14.235000;-0.2555;1.4809;0.2050;1.517
14.235000;-0.2466;1.4811;0.1914;1.514
14.236000;-0.2302;1.4580;0.2350;1.495
14.236000;-0.1758;1.4309;0.2617;1.465
14.237000;-0.0742;1.4164;0.3145;1.453
14.237000;-0.0381;1.4027;0.4197;1.465
14.238000;0.0277;1.3802;0.5916;1.502
14.238000;0.1201;1.3967;0.7774;1.603
14.238000;0.1914;1.3565;1.0274;1.712
14.239000;0.2773;1.3236;1.2915;1.870
14.239000;0.3041;1.2810;1.5219;2.012
14.240000;0.3055;1.2023;2.0054;2.358
14.240000;0.2896;1.0631;2.0512;2.328
14.240000;0.2802;0.9872;2.0950;2.333
14.245000;0.1826;0.8361;2.3612;2.511
14.250000;0.0853;0.6596;2.4028;2.493
14.255000;0.0272;0.4962;2.3898;2.441
14.260000;-0.0394;0.3052;2.3532;2.373
14.269000;-0.0951;0.1488;2.2573;2.264
14.272000;-0.1518;-0.0299;2.1187;2.124
14.274000;-0.1497;-0.1781;1.9685;1.982
14.279000;-0.0772;-0.3193;1.8186;1.848
14.351000;-0.0041;-0.4292;1.6736;1.728
14.353000;0.1384;-0.5123;1.5145;1.605
14.354000;0.3094;-0.5420;1.3745;1.510
14.354000;0.4995;-0.5108;1.2273;1.420
14.354000;0.6516;-0.4544;1.0968;1.354
14.354000;0.8115;-0.3915;0.9397;1.302
14.355000;0.9202;-0.3504;0.8684;1.313
14.355000;1.0470;-0.3040;0.7368;1.316
14.355000;1.1920;-0.2904;0.6236;1.376
14.355000;1.2836;-0.3207;0.6029;1.454
14.356000;1.3000;-0.3775;0.6195;1.489
14.356000;1.2385;-0.4846;0.7951;1.549
14.356000;1.0463;-0.6203;1.0865;1.631
14.356000;0.7880;-0.7900;1.4891;1.861
14.357000;0.5020;-1.0207;1.8643;2.184
14.357000;0.1551;-1.2751;2.2027;2.550
14.363000;-0.1449;-1.5548;2.4354;2.893
14.368000;-0.4339;-1.8077;2.6799;3.262
14.373000;-0.7147;-1.9902;2.8001;3.509
14.377000;-0.9586;-2.1791;2.8417;3.707
14.384000;-1.1301;-2.2964;2.7668;3.769
14.387000;-1.2243;-2.3928;2.6447;3.771
14.392000;-1.2697;-2.4618;2.4375;3.690
14.397000;-1.2684;-2.4627;2.1571;3.511
14.444000;-1.2461;-2.4698;1.8060;3.304
14.445000;-1.1548;-2.4066;1.4153;3.021
14.446000;-1.0234;-2.3328;1.0280;2.747
14.446000;-0.9023;-2.1523;0.6585;2.425
14.447000;-0.7990;-1.9937;0.3758;2.180
14.447000;-0.7025;-1.8087;0.1896;1.950
14.447000;-0.6159;-1.6734;-0.0751;1.785
14.448000;-0.4824;-1.5061;-0.3080;1.611
14.448000;-0.3840;-1.3205;-0.5332;1.475
14.448000;-0.3155;-1.1688;-0.8131;1.458
14.451000;-0.2937;-1.0146;-1.0305;1.476
14.456000;-0.2874;-0.8666;-1.2406;1.540
14.461000;-0.3110;-0.7603;-1.4697;1.684
14.467000;-0.3496;-0.6881;-1.6129;1.788
14.471000;-0.4037;-0.7046;-1.6965;1.881
14.475000;-0.4162;-0.6804;-1.7326;1.907
14.480000;-0.4619;-0.7184;-1.7404;1.939
14.514000;-0.5193;-0.7851;-1.6553;1.904
14.515000;-0.5266;-0.8641;-1.5300;1.834
14.515000;-0.5487;-0.8721;-1.3286;1.681
14.515000;-0.5162;-0.8647;-1.1084;1.498
14.516000;-0.4580;-0.8351;-0.9147;1.321
14.516000;-0.3740;-0.7962;-0.7093;1.130
14.516000;-0.2855;-0.6934;-0.5779;0.947
14.520000;-0.1895;-0.5873;-0.4679;0.774
14.525000;-0.0832;-0.5208;-0.3983;0.661
14.530000;0.0367;-0.4154;-0.3667;0.555
14.534000;0.1053;-0.3544;-0.3945;0.541
14.539000;0.1908;-0.2686;-0.4316;0.543
14.544000;0.2794;-0.2100;-0.5091;0.618
14.550000;0.3287;-0.1543;-0.6128;0.712
14.555000;0.3942;-0.0986;-0.7475;0.851
14.560000;0.4507;-0.0642;-0.8726;0.984
14.564000;0.4771;0.0139;-1.0026;1.110
14.574000;0.4719;0.0716;-1.0803;1.181
14.575000;0.5068;0.1186;-1.1441;1.257
14.579000;0.4264;0.1597;-1.2273;1.309
14.647000;0.3789;0.2283;-1.2870;1.361
14.648000;0.3044;0.3267;-1.3422;1.415
14.648000;0.1837;0.3137;-1.4193;1.465
14.648000;0.0592;0.3208;-1.4630;1.499
14.649000;-0.0764;0.3335;-1.5190;1.557
14.649000;-0.2001;0.3351;-1.5679;1.616
14.649000;-0.3359;0.2705;-1.6336;1.690
14.650000;-0.4871;0.2328;-1.6945;1.778
14.650000;-0.6207;0.1938;-1.7004;1.821
14.650000;-0.7424;0.1697;-1.6490;1.816
14.651000;-0.9052;0.1912;-1.5880;1.838
14.651000;-1.0526;0.1652;-1.4984;1.839
14.651000;-1.1754;0.1749;-1.3752;1.817
14.651000;-1.2386;0.2007;-1.2519;1.772
14.652000;-1.2953;0.1612;-1.1333;1.729
14.657000;-1.3435;0.1875;-1.0027;1.687
14.662000;-1.3021;0.1932;-0.8909;1.589
14.667000;-1.2407;0.2162;-0.7885;1.486
14.673000;-1.1207;0.2326;-0.6763;1.329
14.677000;-0.9518;0.2543;-0.5973;1.152
14.686000;-0.7837;0.3124;-0.5062;0.984
14.688000;-0.6451;0.3564;-0.4554;0.866
14.691000;-0.4371;0.4465;-0.4498;0.770
14.696000;-0.3003;0.5065;-0.4559;0.745
14.752000;-0.1745;0.5677;-0.4594;0.751
14.752000;-0.0278;0.6330;-0.4675;0.787
14.753000;0.1260;0.6885;-0.4302;0.822
14.753000;0.2372;0.7230;-0.4073;0.863
14.753000;0.3350;0.7321;-0.3679;0.885
14.753000;0.4294;0.7636;-0.3312;0.937
14.754000;0.4872;0.7868;-0.2588;0.961
14.754000;0.5590;0.7803;-0.1749;0.976
14.754000;0.5874;0.7846;-0.0626;0.982
14.754000;0.5988;0.8067;0.0540;1.006
14.755000;0.6097;0.8177;0.2038;1.040
14.755000;0.5933;0.8219;0.3795;1.082
14.760000;0.5662;0.8214;0.5407;1.135
14.764000;0.5232;0.8348;0.7495;1.238
14.770000;0.5264;0.8235;0.8745;1.311
14.774000;0.4969;0.7822;0.9994;1.363
14.779000;0.4730;0.7823;1.1269;1.451
14.786000;0.4810;0.7276;1.1494;1.443
14.789000;0.4707;0.6966;1.1196;1.400
14.794000;0.4901;0.6892;0.9923;1.304
14.850000;0.4725;0.6860;0.7891;1.147
14.851000;0.4612;0.7304;0.5435;1.021
14.851000;0.4731;0.7674;0.2293;0.930
14.852000;0.4843;0.8121;-0.0532;0.947
14.852000;0.5354;0.8863;-0.3613;1.097
14.852000;0.5181;0.9357;-0.6259;1.239
14.852000;0.5038;0.9918;-0.8135;1.378
14.853000;0.4842;1.0099;-0.9411;1.463
14.853000;0.4710;1.0450;-1.0782;1.574
14.853000;0.4922;1.1049;-1.1601;1.676
14.854000;0.4855;1.1461;-1.1702;1.708
14.854000;0.4458;1.2049;-1.1016;1.692
14.858000;0.3948;1.2332;-0.9805;1.624
14.862000;0.3516;1.2262;-0.7784;1.494
14.867000;0.2903;1.1933;-0.5884;1.362
14.872000;0.2762;1.1175;-0.4465;1.235
14.877000;0.2475;1.0365;-0.3238;1.114
14.882000;0.1928;0.9649;-0.2274;1.010
14.889000;0.1649;0.8639;-0.2122;0.905
14.893000;0.1328;0.7796;-0.1802;0.811
14.897000;0.1444;0.7286;-0.2964;0.800
14.964000;0.1323;0.6322;-0.3479;0.734
14.965000;0.1393;0.5077;-0.1125;0.538
14.966000;0.1987;0.4462;-0.0951;0.498
14.967000;0.2791;0.4071;-0.0228;0.494
14.968000;0.2873;0.3879;0.1257;0.499
14.969000;0.2019;0.3672;0.2596;0.493
14.969000;0.1140;0.3019;0.4099;0.522
14.969000;0.0162;0.2420;0.5504;0.601
14.970000;-0.0872;0.1471;0.7646;0.783
14.970000;-0.1651;0.0222;0.9832;0.997
14.970000;-0.1745;-0.0994;1.1607;1.178
14.970000;-0.1608;-0.2512;1.3331;1.366
14.971000;-0.0810;-0.4187;1.4860;1.546
14.971000;-0.0735;-0.5515;1.5763;1.672
14.972000;-0.0068;-0.6304;1.6878;1.802
14.976000;0.0764;-0.7008;1.7631;1.899
14.980000;0.1759;-0.6978;1.8498;1.985
14.985000;0.2866;-0.7024;1.9935;2.133
14.989000;0.3605;-0.7122;2.1652;2.308
14.994000;0.4733;-0.7248;2.3410;2.496
15.005000;0.5774;-0.7812;2.5211;2.702
15.006000;0.6488;-0.8429;2.7676;2.965
15.010000;0.6927;-0.9585;2.9920;3.217
15.015000;0.6168;-1.0636;3.1777;3.407
15.083000;0.4536;-1.1230;3.3465;3.559
15.086000;0.1998;-1.1950;3.3455;3.558
15.086000;-0.0876;-1.2611;3.2779;3.513
15.087000;-0.3836;-1.3076;3.0291;3.322
15.087000;-0.6801;-1.4065;2.7524;3.165
15.087000;-0.9459;-1.4764;2.3163;2.905
15.088000;-1.0985;-1.5794;1.8047;2.638
15.088000;-1.2081;-1.6313;1.3014;2.411
15.088000;-1.2309;-1.6434;0.8252;2.213
15.088000;-1.1946;-1.5698;0.4287;2.019
15.089000;-1.1157;-1.4725;0.1618;1.855
15.089000;-0.9551;-1.2889;-0.0808;1.606
15.089000;-0.8194;-1.1027;-0.2251;1.392
15.090000;-0.6587;-0.8856;-0.3000;1.144
15.090000;-0.4622;-0.6451;-0.2864;0.844
15.093000;-0.2249;-0.4414;-0.2703;0.564
15.098000;0.0599;-0.2412;-0.2637;0.362
15.102000;0.2971;-0.0664;-0.3144;0.438
15.108000;0.5034;0.0499;-0.3792;0.632
15.112000;0.7035;0.1558;-0.4822;0.867
15.121000;0.8166;0.2209;-0.5922;1.033
15.123000;0.9104;0.2653;-0.7023;1.180
15.128000;0.9425;0.2251;-0.7697;1.237
15.132000;0.9589;0.1630;-0.8278;1.277
15.194000;0.9010;0.0510;-0.7860;1.197
15.196000;0.8056;-0.0410;-0.7114;1.075
15.196000;0.6805;-0.1755;-0.5944;0.920
15.196000;0.5118;-0.3189;-0.4160;0.733
15.196000;0.3643;-0.4453;-0.2120;0.613
15.197000;0.1756;-0.5982;0.0200;0.624
15.197000;0.0462;-0.7425;0.1655;0.762
15.197000;-0.0264;-0.8547;0.2605;0.894
15.198000;-0.0853;-0.9452;0.4582;1.054
15.198000;-0.1329;-1.0287;0.5936;1.195
15.198000;-0.1740;-1.0775;0.6024;1.247
15.198000;-0.1395;-1.1350;0.6308;1.306
15.199000;-0.1127;-1.1181;0.5735;1.262
15.200000;-0.0770;-1.1226;0.4332;1.206
15.207000;-0.0227;-1.0987;0.2912;1.137
15.210000;0.0261;-1.0487;0.0520;1.050
15.215000;0.0453;-0.9676;-0.2223;0.994
15.221000;0.0897;-0.8816;-0.5316;1.033
15.225000;0.1300;-0.7516;-0.8331;1.130
15.229000;0.1757;-0.6536;-1.1340;1.321
15.284000;0.2263;-0.5201;-1.3077;1.425
15.284000;0.2385;-0.3936;-1.4072;1.481
15.285000;0.2501;-0.2907;-1.5473;1.594
15.285000;0.2348;-0.2016;-1.6945;1.722
15.285000;0.1927;-0.0977;-1.7436;1.757
15.285000;0.1118;-0.0601;-1.8071;1.812
15.286000;0.0063;0.0234;-1.7847;1.785
15.286000;-0.1288;0.0789;-1.7887;1.795
15.287000;-0.2866;0.1323;-1.7021;1.731
15.287000;-0.4242;0.1237;-1.5630;1.624
15.287000;-0.5371;0.0959;-1.4290;1.530
15.289000;-0.6015;0.0580;-1.2903;1.425
15.294000;-0.6319;0.0002;-1.1756;1.335
15.299000;-0.6542;-0.0635;-1.1062;1.287
15.303000;-0.6563;-0.0641;-1.0439;1.235
15.310000;-0.6594;-0.0545;-1.0196;1.215
15.314000;-0.6059;-0.0178;-1.0118;1.179
15.325000;-0.5651;0.0484;-1.1207;1.256
15.326000;-0.5056;0.0872;-1.1840;1.290
15.328000;-0.4685;0.1893;-1.3043;1.399
15.332000;-0.3936;0.2814;-1.4291;1.509
15.422000;-0.3049;0.3517;-1.5514;1.620
15.424000;-0.2431;0.4414;-1.6712;1.745
15.425000;-0.1365;0.5268;-1.7503;1.833
15.425000;-0.0710;0.6657;-1.7627;1.886
15.425000;-0.0274;0.7984;-1.7275;1.903
15.426000;-0.0439;0.9085;-1.7380;1.962
15.426000;-0.0172;1.0412;-1.7369;2.025
15.426000;0.0028;1.1369;-1.6691;2.020
15.427000;-0.0177;1.2388;-1.5587;1.991
15.427000;0.0004;1.3374;-1.4512;1.973
15.427000;-0.0290;1.4110;-1.2844;1.908
15.427000;-0.0912;1.4618;-1.1586;1.868
15.427000;-0.1669;1.4588;-1.0547;1.808
15.428000;-0.2297;1.4375;-0.9081;1.716
15.428000;-0.2817;1.3858;-0.7737;1.612
15.428000;-0.3423;1.3080;-0.6873;1.517
15.429000;-0.4308;1.2497;-0.5962;1.450
15.429000;-0.5162;1.1961;-0.5243;1.404
15.429000;-0.5633;1.0945;-0.4477;1.310
15.430000;-0.6367;1.0838;-0.3902;1.316
15.436000;-0.7128;1.0706;-0.3161;1.324
15.441000;-0.7800;1.0688;-0.2277;1.343
15.445000;-0.7907;1.0667;-0.1321;1.334
15.450000;-0.8072;1.0807;0.0040;1.349
15.455000;-0.7888;1.1155;0.1234;1.372
15.460000;-0.7378;1.1090;0.1948;1.346
15.465000;-0.6350;1.0970;0.2568;1.293
15.512000;-0.5257;1.0795;0.3069;1.239
15.513000;-0.4573;1.0781;0.3428;1.220
15.513000;-0.3840;1.1001;0.3285;1.211
15.513000;-0.3512;1.1144;0.3526;1.221
15.513000;-0.3323;1.1145;0.3145;1.205
15.514000;-0.3415;1.1172;0.3027;1.207
15.514000;-0.3621;1.0963;0.3077;1.195
