time;ax;ay;az;aT
0.003000;-0.0317;0.1709;-0.1634;0.239
0.003000;0.0989;0.1063;-0.1984;0.246
0.003000;0.2076;0.0369;-0.1014;0.234
0.007000;0.2460;0.0443;0.0578;0.257
0.013000;0.2127;0.0630;0.2198;0.312
0.017000;0.1958;0.0780;0.3355;0.396
0.024000;0.1828;0.1054;0.3987;0.451
0.028000;0.2108;0.1140;0.4527;0.512
0.032000;0.2108;0.0500;0.4739;0.521
0.037000;0.2470;-0.0407;0.4792;0.541
0.042000;0.2315;-0.1149;0.4568;0.525
0.047000;0.1910;-0.1801;0.4356;0.509
0.052000;0.1729;-0.2244;0.3516;0.452
0.057000;0.1532;-0.2406;0.1770;0.336
0.062000;0.1222;-0.2169;0.0616;0.256
0.067000;0.1439;-0.1820;-0.0169;0.233
0.074000;0.1181;-0.1688;-0.0021;0.206
0.076000;0.1048;-0.1394;-0.0064;0.175
0.081000;0.0566;-0.1294;0.0012;0.141
0.086000;0.0163;-0.1057;-0.0052;0.107
0.091000;-0.0109;-0.0804;-0.0538;0.097
0.096000;-0.0276;-0.0487;-0.0544;0.078
0.100000;-0.0577;-0.0246;-0.0951;0.114
0.106000;-0.0870;-0.0082;-0.1091;0.140
0.110000;-0.1650;-0.0156;-0.0828;0.185
0.115000;-0.2538;-0.0064;-0.0780;0.266
0.120000;-0.2682;0.0262;-0.0259;0.271
0.125000;-0.3109;0.0276;-0.0524;0.317
0.131000;-0.3132;0.0195;-0.0857;0.325
0.135000;-0.2877;0.0420;-0.1281;0.318
0.140000;-0.2513;0.0268;-0.1821;0.311
0.145000;-0.2183;0.0263;-0.2499;0.333
0.151000;-0.2190;0.0191;-0.2676;0.346
0.168000;-0.1967;0.0055;-0.2594;0.326
0.169000;-0.2224;-0.0026;-0.2184;0.312
0.170000;-0.2224;-0.0384;-0.1001;0.247
0.171000;-0.2376;-0.0569;-0.0021;0.244
0.176000;-0.2109;-0.0895;0.0807;0.243
0.180000;-0.2113;-0.1004;0.1082;0.258
0.184000;-0.1934;-0.0781;0.1023;0.232
0.189000;-0.1810;-0.0752;0.1581;0.252
0.194000;-0.1260;-0.1177;0.0121;0.173
0.198000;-0.1377;-0.1599;-0.0377;0.214
0.203000;-0.1512;-0.1780;-0.0396;0.237
0.208000;-0.1619;-0.1816;0.0487;0.248
0.213000;-0.1510;-0.1805;0.1243;0.266
0.218000;-0.1618;-0.1630;0.2111;0.312
0.223000;-0.1372;-0.1814;0.2072;0.308
0.228000;-0.1275;-0.1668;0.1347;0.249
0.233000;-0.1229;-0.2143;0.1222;0.276
0.239000;-0.0687;-0.2093;0.0530;0.227
0.243000;-0.0433;-0.1902;-0.0061;0.195
0.248000;-0.0113;-0.1855;-0.0457;0.191
0.253000;0.0466;-0.1784;-0.0732;0.198
0.258000;0.0639;-0.1833;-0.1288;0.233
0.262000;0.0745;-0.2071;-0.1888;0.290
0.267000;0.0428;-0.2116;-0.2270;0.313
0.275000;0.0166;-0.2444;-0.2221;0.331
0.277000;0.0815;-0.2531;-0.2507;0.365
0.282000;0.1107;-0.2522;-0.2956;0.404
0.288000;0.1024;-0.2464;-0.2998;0.401
0.294000;0.0711;-0.2429;-0.2590;0.362
0.297000;0.0787;-0.2395;-0.1876;0.314
0.302000;0.0725;-0.2506;-0.0953;0.278
0.307000;0.0386;-0.2359;-0.0724;0.250
0.312000;0.0482;-0.2601;-0.0468;0.269
0.317000;0.0392;-0.2868;-0.0617;0.296
0.323000;0.0308;-0.3065;-0.0526;0.313
0.327000;0.0156;-0.3001;-0.0268;0.302
0.331000;-0.0159;-0.2891;-0.0321;0.291
0.336000;-0.0518;-0.2614;-0.0469;0.271
0.341000;-0.0761;-0.2243;-0.0094;0.237
0.346000;-0.0652;-0.2111;0.0302;0.223
0.351000;-0.0695;-0.1669;0.0479;0.187
0.356000;-0.0629;-0.1490;0.0416;0.167
0.362000;-0.0690;-0.1405;0.0400;0.162
0.366000;-0.0852;-0.1439;0.0146;0.168
0.383000;-0.1112;-0.1018;-0.0155;0.152
0.383000;-0.1515;-0.0980;0.0116;0.181
0.383000;-0.1347;-0.0680;-0.0043;0.151
0.385000;-0.1085;-0.0192;-0.0177;0.112
0.391000;-0.0775;-0.0252;-0.0500;0.096
0.395000;-0.0634;-0.0073;-0.0916;0.112
0.400000;-0.0353;-0.0179;-0.0974;0.105
0.406000;-0.0215;-0.0423;-0.0937;0.105
0.410000;-0.0268;-0.0426;-0.0616;0.080
0.415000;-0.0133;-0.0214;-0.0465;0.053
0.420000;-0.0287;-0.0288;-0.0767;0.087
0.424000;-0.0181;-0.0332;-0.1686;0.173
0.429000;0.0066;-0.0607;-0.4426;0.447
0.434000;0.0192;-0.0966;-0.2758;0.293
0.440000;0.0505;-0.1597;-0.1773;0.244
0.444000;0.0482;-0.1694;-0.2673;0.320
0.449000;0.0032;-0.1429;-0.1266;0.191
0.454000;0.0013;-0.1306;-0.0276;0.133
0.459000;-0.0123;-0.1494;0.0328;0.153
0.464000;-0.0043;-0.1449;0.0573;0.156
0.469000;0.0039;-0.1432;0.0320;0.147
0.475000;0.0024;-0.1205;-0.0024;0.121
0.478000;-0.0298;-0.0701;-0.0458;0.089
0.483000;-0.0548;-0.0535;-0.0365;0.085
0.488000;-0.0892;-0.0064;-0.0747;0.116
0.493000;-0.1186;-0.0119;-0.1054;0.159
0.498000;-0.0981;0.0135;-0.1335;0.166
0.503000;-0.0756;0.0437;-0.1472;0.171
0.515000;-0.0436;0.0666;-0.1348;0.157
0.516000;-0.0474;0.0801;-0.1439;0.171
0.517000;-0.0293;0.1006;-0.1173;0.157
0.523000;-0.0347;0.1118;-0.0484;0.127
0.528000;-0.0132;0.1135;-0.0394;0.121
0.532000;0.0347;0.1059;-0.0234;0.114
0.538000;0.0211;0.0888;0.0898;0.128
0.543000;0.0154;0.0955;0.1760;0.201
0.548000;-0.0134;0.0570;0.2544;0.261
0.552000;-0.0322;0.0471;0.4367;0.440
0.557000;0.0115;0.0631;0.4776;0.482
0.562000;0.0978;0.0475;0.3760;0.391
0.567000;0.0262;0.0818;0.3821;0.392
0.574000;-0.0387;0.0493;0.4166;0.421
0.577000;-0.0589;0.0528;0.4284;0.436
0.581000;-0.0031;0.0632;0.4045;0.409
0.586000;0.0099;0.0709;0.3642;0.371
0.592000;0.0185;0.0947;0.3387;0.352
0.596000;0.0444;0.1349;0.2943;0.327
0.601000;0.0730;0.1530;0.1933;0.257
0.606000;0.1039;0.1635;0.0667;0.205
0.611000;0.1231;0.1668;-0.0520;0.214
0.615000;0.1210;0.2010;-0.2272;0.327
0.620000;0.1195;0.2213;-0.3755;0.452
0.626000;0.1426;0.2757;-0.5496;0.631
0.630000;0.1166;0.3357;-0.6852;0.772
0.635000;0.1367;0.3849;-0.7374;0.843
0.640000;0.1667;0.4138;-0.7137;0.842
0.645000;0.2115;0.3652;-0.6168;0.747
0.650000;0.2204;0.2367;-0.3493;0.476
0.655000;1.0062;-0.0635;4.1267;4.248
0.660000;-0.0775;-0.2126;3.0787;3.087
0.665000;-0.0791;-0.4503;1.8154;1.872
0.670000;0.3989;-0.5809;1.1123;1.317
0.675000;0.6302;-0.5020;0.4011;0.900
0.681000;0.5253;-0.2431;-0.0620;0.582
0.684000;0.3622;-0.0088;-0.2002;0.414
0.690000;0.2165;0.1460;-0.0365;0.264
0.695000;0.0641;0.1925;0.1256;0.239
0.699000;0.1260;0.1711;0.3625;0.420
0.704000;0.2446;0.1434;0.7052;0.760
0.709000;0.0401;0.0895;0.9059;0.911
0.713000;-0.1457;0.0230;0.9489;0.960
0.719000;-0.0936;-0.0116;0.8736;0.879
0.724000;0.0670;-0.0905;0.8472;0.855
0.729000;0.0448;-0.2116;0.5838;0.623
0.733000;0.1111;-0.2961;0.1297;0.342
0.738000;0.3934;-0.2671;-0.1716;0.506
0.743000;0.9314;-0.2530;-0.0759;0.968
0.748000;1.1982;-0.1933;-0.3117;1.253
0.752000;0.9993;-0.1131;-0.7542;1.257
0.758000;0.2431;-0.0190;-1.4812;1.501
0.762000;-0.1659;0.0814;-1.5935;1.604
0.767000;-0.4246;0.1180;-1.3699;1.439
0.772000;-0.5223;0.1304;-1.1353;1.256
0.777000;-0.5775;0.1351;-1.1258;1.272
0.782000;-0.5339;0.0820;-1.2642;1.375
0.787000;-0.5297;0.0289;-1.4977;1.589
0.792000;-0.6544;-0.0216;-1.4971;1.634
0.797000;-0.7145;-0.0809;-1.4160;1.588
0.802000;-0.7910;-0.0461;-1.2573;1.486
0.807000;-0.9139;-0.0025;-1.0356;1.381
0.813000;-1.0678;0.1690;-0.8348;1.366
0.816000;-1.1771;0.3495;-0.7192;1.423
0.821000;-1.2102;0.3484;-0.5312;1.367
0.826000;-1.1563;0.2172;-0.5859;1.314
0.831000;-0.9654;0.0544;-0.4392;1.062
0.836000;-0.7300;-0.1543;-0.2205;0.778
0.841000;-0.5740;-0.3686;-0.0443;0.684
0.846000;-0.5022;-0.5362;0.0800;0.739
0.850000;-0.2685;-0.6388;0.2150;0.726
0.855000;0.1502;-0.7412;0.2845;0.808
0.861000;0.4208;-0.7773;0.3843;0.964
0.866000;0.5617;-0.7241;0.4524;1.022
0.870000;0.5695;-0.4878;0.3846;0.843
0.877000;0.2719;0.0474;-0.0187;0.277
0.880000;0.0659;0.1854;-0.0267;0.199
0.885000;0.2404;-0.0098;-0.0508;0.246
0.894000;1.0688;-0.4936;-0.2364;1.201
0.895000;2.2002;-1.1892;-0.0755;2.502
0.900000;1.4849;-1.0395;-0.4278;1.862
0.905000;0.7666;-0.6811;-0.4768;1.131
0.910000;0.2203;-0.1778;-0.3546;0.454
0.915000;-0.1663;0.2307;-0.4214;0.508
0.919000;-0.6383;0.4726;-0.7116;1.066
0.924000;-0.8600;0.5205;-0.6575;1.201
0.929000;-0.6617;0.3768;-0.0764;0.765
0.934000;-0.3965;0.2282;0.6244;0.774
0.939000;-0.1860;0.1742;0.7320;0.775
0.943000;-0.1348;0.1748;0.8180;0.847
0.949000;0.0108;0.1560;1.1991;1.209
0.954000;0.0736;-0.2599;1.3859;1.412
0.959000;0.1067;-0.6027;1.3560;1.488
0.964000;0.0698;-0.6472;1.1581;1.329
0.968000;0.0225;-0.5380;0.9171;1.063
0.973000;0.0437;-0.2679;0.7472;0.795
0.978000;0.0318;-0.0900;0.6171;0.624
0.983000;-0.0097;0.1162;0.5118;0.525
0.988000;-0.0565;0.3629;0.3836;0.531
0.993000;-0.1751;0.5911;0.2583;0.668
0.998000;-0.2486;0.7131;0.1121;0.763
1.003000;-0.3745;0.7080;0.0856;0.805
1.008000;-0.5124;0.5761;0.0878;0.776
1.012000;-0.6626;0.4299;0.1664;0.807
1.018000;-0.6644;0.1929;0.3809;0.790
1.022000;-0.5248;0.1417;0.6117;0.818
1.028000;-0.4005;0.1396;0.6897;0.810
1.035000;-0.3459;0.1767;0.5058;0.638
1.037000;-0.3455;0.1750;0.4181;0.570
1.043000;-0.1835;0.3107;0.4479;0.575
1.047000;-0.1768;0.4523;0.3204;0.582
1.051000;-0.1785;0.5853;0.1389;0.627
1.056000;-0.1420;0.6187;-0.0060;0.635
1.061000;-0.0743;0.6798;-0.1168;0.694
1.066000;-0.0547;0.7069;-0.1700;0.729
1.071000;-0.1027;0.7219;-0.1920;0.754
1.076000;-0.1183;0.6536;-0.2307;0.703
1.081000;-0.1351;0.5090;-0.3623;0.639
1.086000;-0.2084;0.3219;-0.5196;0.646
1.094000;-0.2688;0.1714;-0.5881;0.669
1.095000;-0.3023;0.0216;-0.5634;0.640
1.101000;-0.3851;-0.1843;-0.4007;0.586
1.105000;-0.4228;-0.2337;-0.4462;0.658
1.111000;-0.5041;-0.2730;-0.1292;0.588
1.115000;-0.5532;-0.2332;-0.0135;0.601
1.120000;-0.5321;-0.1482;0.1472;0.572
1.126000;-0.4966;-0.0660;0.2120;0.544
1.130000;-0.4098;-0.0978;0.3195;0.529
1.135000;-0.4220;-0.0470;0.1877;0.464
1.140000;0.2009;-0.2500;0.2634;0.415
1.144000;1.2451;-0.7201;0.6316;1.571
1.149000;1.1401;-0.7317;0.0586;1.356
1.155000;0.8697;-0.7530;-0.1150;1.156
1.160000;0.5278;-0.6738;-0.3319;0.918
1.164000;0.2337;-0.5236;-0.5130;0.769
1.169000;-0.3022;-0.6412;-0.6345;0.951
1.176000;-1.1808;-1.0078;-0.2170;1.567
1.181000;-1.4255;-1.0228;0.0324;1.755
1.184000;-1.2424;-0.9084;0.2529;1.560
1.189000;-0.8100;-0.7106;0.3208;1.124
1.195000;-0.3685;-0.4370;0.2366;0.619
1.200000;-0.0285;-0.1591;0.1223;0.203
1.203000;0.3026;0.0589;0.1234;0.332
1.209000;0.6361;0.2244;0.2275;0.712
1.213000;0.9751;0.2873;0.4392;1.107
1.218000;1.2128;0.3581;0.5576;1.382
1.223000;1.2388;0.4346;0.6688;1.473
1.230000;1.1275;0.4336;0.8826;1.496
1.232000;0.8661;0.3766;1.0626;1.422
1.237000;0.5420;0.2873;1.1448;1.299
1.244000;0.3139;0.1805;1.1915;1.245
1.248000;0.1592;0.0679;1.1860;1.199
1.253000;0.0553;-0.0501;1.0496;1.052
1.259000;0.0685;-0.1709;0.9499;0.968
1.262000;0.1358;-0.2465;0.9245;0.966
1.267000;0.1473;-0.3079;0.7444;0.819
1.272000;0.1273;-0.3455;0.4980;0.619
1.277000;0.1670;-0.3229;0.3453;0.501
1.282000;0.2026;-0.2856;0.1811;0.394
1.287000;0.1891;-0.1956;-0.0091;0.272
1.295000;0.1274;-0.1361;-0.1798;0.259
1.300000;0.0442;-0.0691;-0.2691;0.281
1.301000;-0.0151;-0.0611;-0.3488;0.354
1.307000;-0.1151;-0.0022;-0.3068;0.328
1.315000;-0.1867;0.0216;-0.2630;0.323
1.316000;-0.2754;-0.0014;-0.2076;0.345
1.321000;-0.3242;-0.0284;-0.1550;0.360
1.328000;-0.3193;-0.0214;-0.1362;0.348
1.331000;-0.2797;0.0289;-0.0579;0.287
1.336000;-0.2225;0.0986;0.0080;0.243
1.341000;-0.2142;0.0949;0.0926;0.252
1.347000;-0.1953;0.1058;0.1005;0.244
1.351000;-0.2251;0.1122;-0.0063;0.252
1.356000;-0.2028;0.1092;-0.1152;0.258
1.362000;-0.1999;0.0876;-0.2549;0.336
1.365000;-0.2017;0.0736;-0.2942;0.364
1.370000;-0.2294;0.0576;-0.3167;0.395
1.378000;-0.2636;0.0323;-0.3727;0.458
1.380000;-0.2755;0.0143;-0.3569;0.451
1.387000;-0.1819;-0.0084;-0.2004;0.271
1.390000;-0.1055;-0.0504;-0.0538;0.129
1.401000;-0.0658;-0.0711;-0.0006;0.097
1.402000;-0.0179;-0.0823;0.0334;0.091
1.404000;0.0621;-0.0938;-0.0066;0.113
1.409000;0.1243;-0.0957;-0.0440;0.163
1.415000;0.1143;-0.1025;-0.1051;0.186
1.419000;0.0779;-0.1355;-0.1160;0.195
1.424000;0.0179;-0.1659;-0.1388;0.217
1.428000;0.0202;-0.1388;-0.1377;0.197
1.434000;0.0989;-0.1236;-0.0388;0.163
1.438000;0.1913;-0.1397;0.1840;0.300
1.444000;0.2663;-0.1107;0.3944;0.489
1.448000;0.3783;-0.0640;0.5712;0.688
1.454000;0.8420;-0.2338;0.7410;1.146
1.458000;0.8827;-0.4080;0.8587;1.297
1.464000;0.6422;-0.5680;0.6694;1.088
1.468000;0.4984;-0.6732;0.4339;0.943
1.473000;0.2840;-0.6796;0.2069;0.765
1.479000;0.1227;-0.6279;0.0480;0.642
1.482000;-0.0359;-0.5197;-0.0671;0.525
1.487000;-0.3736;-0.3048;-0.1554;0.507
1.493000;-0.6699;-0.2311;-0.3412;0.786
1.498000;-0.8045;-0.3267;-0.6003;1.056
1.502000;-0.9251;-0.5428;-0.9470;1.431
1.508000;-0.9392;-0.7357;-1.0969;1.621
1.512000;-1.1458;-0.6977;-0.8478;1.587
1.517000;-1.0636;-0.7150;-0.9372;1.588
1.521000;-1.0315;-0.7350;-0.9324;1.573
1.527000;-1.0269;-0.7026;-1.0290;1.615
1.532000;-1.0058;-0.6720;-1.3465;1.810
1.537000;-0.9650;-0.5791;-1.5320;1.901
1.541000;-0.9321;-0.4137;-1.6534;1.943
1.547000;-0.7974;-0.2027;-1.7685;1.951
1.552000;-0.5993;-0.0557;-2.0019;2.090
1.557000;-0.4003;0.1380;-2.0673;2.110
1.561000;-0.2007;0.2980;-2.0161;2.048
1.566000;0.0239;0.3937;-2.1401;2.176
1.571000;0.2861;0.4516;-2.1812;2.246
1.575000;0.5283;0.4915;-2.0279;2.152
1.581000;0.7341;0.7852;-1.0312;1.490
1.585000;0.7959;1.0826;0.0815;1.346
1.590000;0.8304;1.3242;0.2874;1.589
1.595000;0.7226;1.4587;0.2600;1.649
1.600000;0.5903;1.5727;0.6183;1.790
1.605000;0.4383;1.6076;1.2951;2.110
1.610000;0.2785;1.5402;1.3736;2.082
1.614000;0.1953;1.2919;1.2752;1.826
1.620000;0.2199;0.9529;1.2348;1.575
1.624000;0.2692;0.5383;1.0925;1.247
1.629000;0.2911;0.2141;0.8203;0.896
1.634000;0.3022;-0.1270;0.5379;0.630
1.639000;0.3454;-0.3495;0.3432;0.599
1.644000;0.3625;-0.4680;0.2622;0.647
1.649000;0.4142;-0.4887;0.2851;0.701
1.654000;0.4555;-0.4473;0.3686;0.737
1.660000;0.4627;-0.3280;0.4577;0.729
1.664000;0.4495;-0.1498;0.5478;0.724
1.669000;0.4033;0.0350;0.6124;0.734
1.673000;0.3502;0.1862;0.6371;0.750
1.680000;0.2332;0.3467;0.6889;0.806
1.684000;0.0791;0.4573;0.6697;0.815
1.688000;-0.0064;0.5591;0.6272;0.840
1.695000;-0.1903;0.5093;1.4970;1.593
1.698000;-1.4383;0.4909;4.0938;4.367
1.703000;-1.3319;0.4433;3.7308;3.986
1.708000;0.0058;0.6178;2.9285;2.993
1.713000;0.5342;0.9459;2.5569;2.778
1.718000;0.2793;1.1542;2.1886;2.490
1.723000;0.1396;1.1298;1.7759;2.109
1.728000;0.2314;0.7678;1.3448;1.566
1.732000;0.1989;0.4439;1.0832;1.187
1.738000;0.1153;0.2069;0.9304;0.960
1.743000;0.0995;0.0599;0.8166;0.825
1.747000;0.0991;0.0040;0.7346;0.741
1.752000;0.1499;-0.0079;0.6268;0.645
1.757000;0.1988;-0.0322;0.4790;0.520
1.763000;0.2722;-0.0946;0.4986;0.576
1.767000;0.3352;-0.0225;0.3007;0.451
1.771000;0.3216;0.0048;0.5708;0.655
1.779000;0.3435;0.0521;0.5367;0.639
1.786000;0.3882;0.0663;0.4928;0.631
1.786000;0.3458;0.0430;0.4464;0.566
1.791000;0.3358;-0.0040;0.3618;0.494
1.796000;0.3485;-0.0722;0.2796;0.453
1.801000;0.3864;-0.1309;0.2525;0.480
1.806000;0.4279;-0.1249;0.2302;0.502
1.811000;0.3705;-0.1145;0.1243;0.407
1.816000;0.3217;-0.0654;0.0303;0.330
1.821000;0.2434;0.0462;0.0318;0.250
1.827000;0.1313;0.2022;0.1447;0.281
1.830000;-0.0173;0.3542;0.2975;0.463
1.835000;-0.0309;0.4116;0.3229;0.524
1.841000;-0.0078;0.4507;0.2906;0.536
1.850000;0.2414;0.4219;0.1622;0.512
1.850000;0.5144;0.3631;0.0167;0.630
1.855000;0.6471;0.3156;-0.0411;0.721
1.861000;0.6952;0.2170;-0.0663;0.731
1.865000;0.6818;0.0513;-0.2146;0.717
1.870000;0.6404;-0.1157;-0.3147;0.723
1.875000;0.6805;-0.1259;-0.2975;0.753
1.881000;0.5642;-0.0014;-0.0960;0.572
1.884000;0.4659;0.0943;0.2406;0.533
1.889000;0.4822;0.0662;0.4642;0.673
1.895000;0.4524;0.0280;0.6020;0.754
1.899000;0.4504;0.0668;0.6615;0.803
1.904000;0.3066;0.1152;0.7457;0.814
1.909000;0.2177;0.2732;0.8451;0.914
1.918000;0.2216;0.4094;0.8953;1.009
1.919000;0.2958;0.4783;0.8608;1.028
1.924000;0.3330;0.4732;0.6965;0.905
1.929000;0.2713;0.4538;0.5363;0.753
1.934000;0.2487;0.3517;0.2270;0.487
1.938000;0.1920;0.2747;-0.0377;0.337
1.943000;0.1305;0.2066;-0.2987;0.386
1.948000;0.0483;0.1284;-0.4513;0.472
1.953000;-0.0924;0.0431;-0.5339;0.544
1.958000;-0.2124;-0.0307;-0.5825;0.621
1.963000;-0.2786;-0.1115;-0.6475;0.714
1.968000;-0.3604;-0.2261;-0.6904;0.811
1.972000;-0.4395;-0.3573;-0.8261;1.002
1.977000;-0.4876;-0.4807;-0.9614;1.180
1.984000;-0.5296;-0.5551;-1.0249;1.280
1.987000;-0.5561;-0.5970;-1.1005;1.370
1.992000;-0.6297;-0.5605;-1.0907;1.378
2.010000;-0.6922;-0.5316;-1.0576;1.371
2.011000;-0.7507;-0.4935;-0.9991;1.344
2.012000;-0.8091;-0.4968;-0.9676;1.356
2.013000;-0.8356;-0.5225;-0.9559;1.373
2.017000;-0.8416;-0.5755;-0.9541;1.396
2.021000;-0.8058;-0.6343;-0.9529;1.400
2.027000;-0.7851;-0.6872;-0.9330;1.400
2.031000;-0.7387;-0.6884;-0.9232;1.368
2.036000;-0.6954;-0.7173;-0.9496;1.378
2.041000;-0.6472;-0.6879;-0.9167;1.316
2.050000;-0.5988;-0.6982;-0.9153;1.298
2.051000;-0.5423;-0.7028;-0.9143;1.274
2.055000;-0.4946;-0.7044;-0.9112;1.253
2.062000;-0.3838;-0.7460;-1.1066;1.389
2.067000;-0.2146;-0.8152;-1.3808;1.618
2.071000;-0.0605;-0.8323;-1.6217;1.824
2.075000;0.0790;-0.8636;-1.7773;1.978
2.081000;0.0797;-0.9084;-1.8456;2.059
2.089000;0.0609;-0.8208;-1.5975;1.797
2.090000;-0.0043;-0.6581;-1.3681;1.518
2.099000;-0.1163;-0.5000;-1.1451;1.255
2.100000;-0.2562;-0.4305;-0.9306;1.057
2.105000;-0.3738;-0.4454;-0.7101;0.918
2.110000;-0.4959;-0.4593;-0.4068;0.789
2.116000;-0.4597;-0.3981;-0.0780;0.613
2.120000;-0.3446;-0.3542;0.2503;0.554
2.125000;-0.2447;-0.3780;0.4923;0.667
2.130000;-0.1845;-0.3653;0.6583;0.775
2.134000;-0.0758;-0.3881;0.7197;0.821
2.139000;0.0049;-0.3920;0.7199;0.820
2.144000;0.0242;-0.3481;0.7450;0.823
2.149000;0.0679;-0.2593;0.7758;0.821
2.154000;0.0477;-0.1947;0.7455;0.772
2.159000;-0.0335;-0.1546;0.6805;0.699
2.164000;-0.0775;-0.1267;0.5593;0.579
2.168000;0.1309;-0.2831;0.4011;0.508
2.173000;0.4669;-0.5394;0.1893;0.738
2.181000;0.1322;-0.4961;-0.0717;0.518
2.183000;-0.1648;-0.1722;-0.2768;0.365
2.188000;-0.2252;-0.0003;-0.3952;0.455
2.193000;-0.1567;0.0679;-0.5035;0.532
2.200000;-0.1486;0.0759;-0.5590;0.583
2.203000;-0.1537;0.1649;-0.6310;0.670
2.207000;-0.1525;0.2115;-0.6482;0.699
2.214000;-0.1064;0.1747;-0.6702;0.701
2.217000;-0.0076;0.1961;-0.5994;0.631
2.222000;0.0390;0.1773;-0.4955;0.528
2.228000;0.0416;0.0686;-0.4612;0.468
2.231000;0.1273;0.0942;-0.4344;0.462
2.237000;0.0927;-0.0517;-0.4460;0.458
2.241000;0.1383;-0.0913;-0.5105;0.537
2.247000;0.0608;-0.1915;-0.5491;0.585
2.252000;0.0469;-0.1538;-0.6360;0.656
2.256000;-0.0158;-0.2004;-0.6638;0.694
2.262000;-0.0388;-0.0707;-0.6898;0.694
2.267000;-0.1868;-0.1064;-0.6807;0.714
2.271000;-0.1775;0.0605;-0.6795;0.705
2.276000;-0.2625;0.0280;-0.6478;0.700
2.283000;-0.3105;0.0281;-0.5737;0.653
2.286000;-0.1863;0.1297;-0.5504;0.595
2.291000;-0.1632;0.1008;-0.5036;0.539
2.299000;-0.2655;-0.0513;-0.4118;0.493
2.301000;-0.2230;0.0223;-0.3994;0.458
2.305000;-0.1681;0.0841;-0.3417;0.390
2.311000;-0.2802;-0.0019;-0.2485;0.375
2.318000;-0.3437;-0.0281;-0.1770;0.388
2.319000;-0.3585;0.0076;-0.1174;0.377
2.325000;-0.2534;0.1313;-0.0364;0.288
2.331000;-0.3580;0.0947;0.1042;0.385
2.334000;-0.4993;0.0412;0.2184;0.547
2.340000;-0.6788;0.0303;0.3326;0.756
2.346000;-0.7001;0.1215;0.6330;0.952
2.349000;-0.5651;0.1904;0.8091;1.005
2.354000;-0.6569;-0.0047;0.9685;1.170
2.360000;-0.7615;-0.2148;1.0253;1.295
2.364000;-0.6669;-0.3230;1.0131;1.255
2.368000;-0.4576;-0.3056;0.9297;1.080
2.373000;-0.2200;-0.1606;0.8135;0.858
2.380000;-0.0736;-0.0219;0.7050;0.709
2.384000;-0.0151;0.1129;0.6354;0.645
2.389000;-0.0433;0.1940;0.5614;0.596
2.394000;-0.1003;0.2145;0.5166;0.568
2.399000;-0.1641;0.1891;0.3955;0.468
2.404000;-0.1771;0.1687;0.2723;0.366
2.409000;-0.1393;0.2107;0.1707;0.305
2.417000;-0.0592;0.2892;0.1120;0.316
2.418000;0.0755;0.4019;0.1607;0.439
2.423000;0.2506;0.5173;0.1661;0.598
2.429000;0.3516;0.6355;0.1045;0.734
2.432000;0.3114;0.6937;0.6975;1.032
2.437000;0.2626;0.8763;0.9550;1.322
2.443000;0.2757;0.9669;1.2912;1.636
2.449000;0.2543;0.9175;1.4361;1.723
2.452000;0.1628;0.8324;1.2950;1.548
2.457000;0.0715;0.6996;1.0977;1.304
2.462000;0.1622;0.5694;0.7607;0.964
2.468000;0.2773;0.4566;0.3724;0.651
2.471000;0.2969;0.3622;0.0282;0.469
2.477000;0.2950;0.3658;-0.0886;0.478
2.482000;0.3799;0.4061;-0.0621;0.560
2.487000;0.5310;0.3666;-0.1174;0.656
2.492000;0.4875;0.3219;-0.2498;0.635
2.498000;0.3745;0.2576;-0.2775;0.533
2.502000;0.2743;0.2829;-0.1074;0.408
2.506000;0.2345;0.3400;0.0669;0.418
2.511000;-0.0505;0.6673;0.1787;0.693
2.517000;-0.5044;0.9627;0.2642;1.118
2.522000;-0.9454;1.2404;0.2828;1.585
2.525000;-1.0880;1.0807;0.1890;1.545
2.531000;-1.0667;0.7141;-0.0314;1.284
2.536000;-0.8856;0.3089;-0.2350;0.967
2.541000;-0.5479;-0.1059;-0.3195;0.643
2.547000;-0.1458;-0.3603;-0.3614;0.531
2.550000;0.1329;-0.5149;-0.4634;0.705
2.555000;0.2484;-0.5244;-0.5132;0.775
2.560000;0.3190;-0.5230;-0.5729;0.839
2.565000;0.3378;-0.4729;-0.5301;0.787
2.569000;0.3696;-0.3960;-0.4495;0.704
2.576000;0.3334;-0.3140;-0.4025;0.610
2.582000;0.2893;-0.2899;-0.3532;0.541
2.584000;0.2835;-0.2807;-0.3183;0.510
2.590000;0.3194;-0.2701;-0.3333;0.535
2.594000;0.3995;-0.3176;-0.3505;0.619
2.606000;0.5475;-0.3594;-0.3960;0.765
2.607000;0.7202;-0.4501;-0.4889;0.980
2.609000;0.8314;-0.5157;-0.5549;1.125
2.615000;0.9460;-0.6371;-0.5727;1.276
2.619000;1.0895;-0.6376;-0.5924;1.394
2.624000;1.2189;-0.6152;-0.5853;1.486
2.628000;1.2826;-0.5693;-0.5564;1.510
2.633000;1.3486;-0.4852;-0.1452;1.441
2.638000;1.4202;-0.3534;0.2489;1.485
2.644000;1.4256;-0.1190;0.4036;1.486
2.648000;1.2411;0.1462;0.3980;1.312
2.654000;0.8670;0.4615;0.2943;1.025
2.658000;0.3317;0.6019;0.2242;0.723
2.663000;-0.1463;0.6394;0.2354;0.697
2.668000;-0.5050;0.5545;0.2776;0.800
2.674000;-0.6218;0.3951;0.3271;0.806
2.678000;-0.5078;0.2593;0.3168;0.652
2.684000;-0.3106;0.1542;0.3377;0.484
2.688000;-0.1564;-0.0011;0.2750;0.316
2.692000;-0.1070;-0.1346;0.2291;0.286
2.699000;-0.1498;-0.2081;0.2022;0.327
2.702000;-0.2196;-0.2694;0.1801;0.391
2.708000;-0.3160;-0.2422;0.1557;0.427
2.712000;-0.3243;-0.1770;0.1408;0.395
2.722000;-0.2823;-0.1170;0.0378;0.308
2.722000;-0.2328;-0.1171;0.0330;0.263
2.727000;-0.1614;-0.1344;0.0737;0.223
2.732000;-0.1208;-0.1067;0.0668;0.174
2.736000;-0.0321;-0.1224;0.0647;0.142
2.742000;0.0256;-0.1241;0.0413;0.133
2.747000;0.0690;-0.1237;-0.0177;0.143
2.751000;0.1243;-0.1620;-0.0384;0.208
2.756000;0.1656;-0.1885;-0.0971;0.269
2.761000;0.1621;-0.1699;-0.1317;0.269
2.766000;0.1377;-0.1681;-0.2068;0.300
2.771000;0.0685;-0.1301;-0.2557;0.295
2.776000;0.0166;-0.1562;-0.2592;0.303
2.783000;-0.0323;-0.1292;-0.3250;0.351
2.785000;-0.0594;-0.1063;-0.3336;0.355
2.790000;-0.1076;-0.0801;-0.3568;0.381
2.795000;-0.2345;-0.0485;-0.3731;0.443
2.805000;-0.3016;-0.0376;-0.3251;0.445
2.805000;-0.2993;-0.0382;-0.3251;0.444
2.814000;-0.2901;-0.0311;-0.3086;0.425
2.817000;-0.1973;-0.0547;-0.2923;0.357
2.820000;-0.0973;-0.0732;-0.2904;0.315
2.825000;-0.0550;-0.0863;-0.3031;0.320
2.831000;-0.0393;-0.1254;-0.2417;0.275
2.834000;-0.0355;-0.1429;-0.2570;0.296
2.840000;-0.0076;-0.1695;-0.2938;0.339
2.845000;0.0136;-0.1529;-0.3593;0.391
2.849000;-0.2367;-0.2722;-0.8333;0.908
2.854000;-0.3315;-0.3401;-0.8482;0.972
2.859000;-0.0831;-0.2442;-0.7343;0.778
2.864000;0.0599;-0.1685;-0.4946;0.526
2.871000;0.1498;-0.0459;-0.2151;0.266
2.874000;0.2414;0.0389;-0.1059;0.266
2.879000;0.2493;0.0618;0.0007;0.257
2.884000;0.2376;0.0178;0.1023;0.259
2.889000;0.1182;-0.0143;0.2182;0.249
2.894000;0.0490;-0.0543;0.3389;0.347
2.901000;0.0130;-0.0663;0.3975;0.403
2.903000;0.0242;-0.0957;0.4014;0.413
2.909000;-0.0323;-0.1113;0.3982;0.415
2.913000;-0.0151;-0.1155;0.3331;0.353
2.927000;0.0277;-0.1202;0.3663;0.386
2.928000;0.0508;-0.1132;0.4304;0.448
2.928000;0.0347;-0.1209;0.4850;0.501
2.933000;0.0320;-0.1169;0.5014;0.516
2.937000;0.0190;-0.0752;0.5299;0.536
2.942000;0.0055;-0.0413;0.5560;0.558
2.949000;-0.0443;-0.0343;0.5561;0.559
2.952000;-0.1015;-0.0187;0.5588;0.568
2.956000;-0.1423;0.0124;0.5165;0.536
2.962000;-0.1835;0.0450;0.5007;0.535
2.967000;-0.1508;0.0580;0.4279;0.457
2.972000;-0.1543;0.0940;0.3744;0.416
2.977000;-0.1174;0.1034;0.3260;0.362
2.981000;-0.0590;0.1459;0.2490;0.295
2.988000;-0.0628;0.1738;0.1866;0.263
2.991000;-0.0332;0.1922;0.1361;0.238
2.996000;-0.0226;0.2010;0.0643;0.212
3.001000;-0.0332;0.1547;-0.0074;0.158
3.006000;-0.0313;0.1490;-0.0885;0.176
3.011000;0.0192;0.1409;-0.1050;0.177
3.016000;0.0580;0.1212;-0.0785;0.156
3.020000;0.0396;0.1378;-0.0211;0.145
3.026000;0.0044;0.1428;0.0314;0.146
3.031000;-0.0692;0.1336;0.0765;0.169
3.035000;-0.1189;0.1268;0.1239;0.213
3.040000;-0.1445;0.1389;0.1331;0.241
3.045000;-0.1218;0.0931;0.1760;0.233
3.052000;-0.0485;0.1184;0.2357;0.268
3.056000;0.0009;0.1095;0.2286;0.254
3.060000;0.0004;0.0689;0.1788;0.192
3.065000;-0.0238;0.0445;0.0982;0.110
3.069000;-0.0573;0.0248;0.0249;0.067
3.074000;-0.1434;0.0341;-0.0005;0.147
3.079000;-0.1674;0.0246;0.0121;0.170
3.084000;-0.1796;0.0252;0.0198;0.182
3.089000;-0.1967;0.0166;0.0680;0.209
3.094000;-0.1636;0.0440;0.3240;0.366
3.100000;-0.1617;0.0138;-0.0201;0.164
3.103000;-0.1166;0.0504;0.0282;0.130
3.109000;-0.0951;0.0103;0.1434;0.172
3.114000;-0.0781;-0.0132;0.0435;0.090
3.118000;-0.0961;-0.0248;0.0985;0.140
3.124000;-0.1565;-0.0268;0.1601;0.225
3.131000;-0.2065;-0.0314;0.2402;0.318
3.133000;-0.2249;-0.0124;0.2984;0.374
3.138000;-0.1309;-0.0440;0.0716;0.156
3.143000;-0.0678;-0.0923;0.0438;0.123
3.148000;-0.2802;-0.2547;-0.2256;0.441
3.152000;-0.3727;-0.2869;-0.3004;0.558
3.158000;-0.3989;-0.2590;-0.2534;0.539
3.162000;-0.3714;-0.0607;-0.0705;0.383
3.167000;-0.2926;0.1715;0.1358;0.365
3.172000;-0.2530;0.3463;0.2914;0.519
3.177000;-0.2162;0.3865;0.4160;0.608
3.184000;-0.2223;0.3182;0.4642;0.605
3.187000;-0.2522;0.1675;0.3527;0.465
3.192000;-0.2511;0.0634;0.1581;0.303
3.200000;-0.2434;-0.0295;-0.0406;0.249
3.202000;-0.2242;-0.0293;-0.2295;0.322
3.207000;-0.1959;-0.0218;-0.4301;0.473
3.211000;-0.1706;0.0055;-0.5256;0.553
3.220000;-0.1222;0.0501;-0.6068;0.621
3.221000;-0.0745;0.0697;-0.6023;0.611
3.226000;-0.0565;0.0786;-0.5815;0.590
3.231000;-0.0418;0.0699;-0.5183;0.525
3.236000;-0.0491;0.0793;-0.4365;0.446
3.241000;-0.0732;0.0561;-0.3217;0.335
3.245000;-0.0471;0.0550;-0.1857;0.199
3.250000;0.0127;0.0374;-0.0811;0.090
3.255000;0.0515;0.0004;0.0308;0.060
3.261000;0.0311;0.0108;0.1044;0.109
3.266000;-0.0006;0.0108;0.1829;0.183
3.270000;-0.0222;0.0173;0.1613;0.164
3.275000;-0.0673;0.0277;0.0731;0.103
3.280000;-0.1000;0.0253;-0.0554;0.117
3.286000;-0.1034;0.0248;-0.2097;0.235
3.291000;-0.0417;0.0263;-0.2873;0.292
3.295000;0.0106;0.0593;-0.2334;0.241
3.301000;0.0176;0.1068;-0.2610;0.283
3.306000;-0.0185;0.1069;-0.1763;0.207
3.319000;-0.0331;0.1217;-0.1684;0.210
3.319000;-0.0356;0.0866;-0.1343;0.164
3.320000;0.0244;0.0878;-0.1075;0.141
3.324000;0.0728;0.0699;-0.1118;0.151
3.329000;0.1095;0.0831;-0.1543;0.207
3.334000;0.0939;0.1016;-0.1659;0.216
3.339000;0.0904;0.1206;-0.2040;0.254
3.344000;-0.0014;0.0974;-0.2565;0.274
3.348000;-0.0333;0.0869;-0.2401;0.257
3.353000;-0.0075;0.0798;-0.1952;0.211
3.358000;-0.0005;0.0377;-0.1531;0.158
3.363000;0.0308;0.0581;-0.0848;0.107
3.368000;0.0339;0.0261;-0.0191;0.047
3.373000;0.0446;0.0275;0.0059;0.053
3.378000;0.0152;-0.0139;-0.0145;0.025
3.384000;0.0126;-0.0052;-0.0420;0.044
3.388000;-0.0468;-0.0224;-0.0935;0.107
3.393000;-0.0362;-0.0418;-0.1378;0.149
3.401000;-0.0203;-0.0393;-0.1225;0.130
3.402000;-0.0210;-0.0411;-0.0570;0.073
3.407000;-0.0576;-0.0596;-0.0180;0.085
3.413000;-0.0491;-0.0492;0.0400;0.080
3.431000;-0.0864;-0.0699;0.0716;0.132
3.432000;-0.0475;-0.0834;0.0483;0.107
3.433000;-0.0208;-0.0878;0.0156;0.092
3.433000;0.0034;-0.0875;0.0068;0.088
3.437000;-0.0135;-0.0676;0.0052;0.069
3.442000;-0.0781;-0.0453;0.0486;0.103
3.447000;-0.1382;-0.0300;0.0963;0.171
3.452000;-0.1535;-0.0551;0.1578;0.227
3.456000;-0.1598;-0.0706;0.1974;0.264
3.462000;-0.1237;-0.1335;0.2130;0.280
3.466000;-0.0788;-0.1819;0.2096;0.288
3.471000;-0.0062;-0.1565;0.2252;0.274
3.476000;0.0582;-0.1577;0.2431;0.296
3.481000;0.0767;-0.1332;0.2777;0.317
3.487000;0.0591;-0.1071;0.3002;0.324
3.492000;0.0128;-0.0864;0.3299;0.341
3.495000;0.0020;-0.0855;0.2859;0.298
3.503000;0.0312;-0.0950;0.2321;0.253
3.506000;0.0315;-0.0905;0.1618;0.188
3.511000;0.1725;-0.0649;0.1419;0.233
3.516000;0.2963;-0.0471;0.0624;0.306
3.522000;0.3481;-0.0131;-0.0861;0.359
3.525000;0.2520;-0.0200;-0.2104;0.329
3.530000;0.1112;-0.0938;-0.2916;0.326
3.535000;-0.0387;-0.1170;-0.2915;0.316
3.540000;-0.0977;-0.0967;-0.1935;0.237
3.545000;-0.1189;-0.0614;-0.1174;0.178
3.550000;-0.0449;-0.0259;-0.0965;0.110
3.555000;0.0144;-0.0310;-0.0828;0.090
3.560000;0.0262;-0.0528;-0.1551;0.166
3.565000;0.1081;-0.0702;-0.1698;0.213
3.569000;0.2071;-0.0972;-0.1654;0.282
3.574000;0.2415;-0.0643;-0.1873;0.312
3.579000;0.2232;-0.0338;-0.1613;0.277
3.584000;0.1834;-0.0100;-0.1404;0.231
3.589000;0.1242;0.0404;-0.0240;0.133
3.594000;0.0813;0.0169;0.0512;0.097
3.602000;0.0504;-0.0037;0.1209;0.131
3.605000;0.0057;-0.0740;0.1307;0.150
3.613000;-0.0313;-0.0939;0.1712;0.198
3.613000;-0.0203;-0.1278;0.1996;0.238
3.633000;0.0240;-0.1263;0.2017;0.239
3.634000;0.0232;-0.1132;0.1921;0.224
3.634000;0.0203;-0.0817;0.1875;0.206
3.635000;-0.0109;-0.0296;0.1474;0.151
3.638000;-0.0608;-0.0327;0.1671;0.181
3.642000;-0.0935;-0.0146;0.1036;0.140
3.648000;-0.1401;-0.0110;0.0620;0.154
3.656000;-0.1504;-0.0195;-0.0100;0.152
3.658000;-0.1747;-0.0065;-0.0980;0.200
3.663000;-0.1655;-0.0414;-0.1994;0.262
3.667000;-0.1587;-0.0284;-0.3001;0.341
3.672000;-0.1565;-0.0178;-0.3619;0.395
3.677000;-0.1471;-0.0188;-0.3972;0.424
3.682000;-0.1410;0.0355;-0.4355;0.459
3.687000;-0.1442;0.0500;-0.4310;0.457
3.692000;-0.1569;0.0721;-0.4625;0.494
3.697000;-0.1694;0.1020;-0.4702;0.510
3.708000;-0.1650;0.1276;-0.4542;0.500
3.709000;-0.1847;0.1155;-0.4504;0.500
3.711000;-0.2092;0.1083;-0.4130;0.475
3.717000;-0.2264;0.1088;-0.3067;0.396
3.721000;-0.2581;0.1360;-0.2770;0.402
3.726000;-0.2731;0.1303;-0.1902;0.357
3.731000;-0.2691;0.1367;-0.1251;0.327
3.736000;-0.2554;0.1216;-0.0361;0.285
3.740000;-0.2584;0.0801;0.0122;0.271
3.745000;-0.2253;0.0382;0.0557;0.235
3.751000;-0.2255;0.0123;0.1401;0.266
3.755000;-0.2137;0.0360;0.1840;0.284
3.760000;-0.2380;0.0495;0.0893;0.259
3.765000;-0.2862;0.1438;0.0164;0.321
3.770000;-0.3323;0.1322;0.1566;0.390
3.775000;-0.3403;0.1174;0.0315;0.361
3.780000;-0.2887;0.1117;-0.0957;0.324
3.786000;-0.2249;0.1128;-0.1653;0.301
3.789000;-0.1563;0.0758;-0.2396;0.296
3.794000;-0.0853;0.0818;-0.2994;0.322
3.799000;-0.0789;0.0785;-0.3330;0.351
3.805000;-0.1419;0.1308;-0.3357;0.387
3.809000;-0.1668;0.1335;-0.3504;0.410
3.814000;-0.1508;0.1657;-0.3153;0.387
3.821000;-0.1062;0.1650;-0.2588;0.325
3.824000;-0.0808;0.1409;-0.1763;0.240
3.829000;-0.0273;0.1171;-0.1106;0.163
3.833000;-0.0268;0.1173;-0.0714;0.140
3.838000;0.0068;0.1007;-0.0561;0.115
3.843000;0.0139;0.0838;-0.0646;0.107
3.849000;0.0351;0.1025;-0.1184;0.161
3.853000;0.0299;0.1183;-0.1840;0.221
3.858000;0.0222;0.1006;-0.2303;0.252
3.864000;0.0598;0.1165;-0.2790;0.308
3.868000;0.1109;0.1529;-0.3159;0.368
3.873000;0.1046;0.1585;-0.3170;0.370
3.878000;0.0866;0.1858;-0.3015;0.365
3.883000;0.0712;0.2106;-0.3052;0.378
3.889000;0.0536;0.2021;-0.3161;0.379
3.892000;0.0693;0.2082;-0.3459;0.410
3.898000;0.1204;0.1978;-0.3493;0.419
3.909000;0.1748;0.2130;-0.3506;0.446
3.909000;0.1956;0.2021;-0.3615;0.458
3.914000;0.2286;0.2490;-0.3534;0.489
3.918000;0.1852;0.2938;-0.3095;0.465
3.922000;0.1708;0.3151;-0.2587;0.442
3.927000;0.1372;0.3173;-0.2079;0.403
3.932000;0.1158;0.3247;-0.1549;0.378
3.938000;0.1254;0.3251;-0.1092;0.365
3.942000;0.1251;0.3161;-0.0683;0.347
3.947000;0.1292;0.3310;-0.0251;0.356
3.952000;0.0921;0.3603;0.0491;0.375
3.956000;0.0452;0.3705;0.0897;0.384
3.961000;-0.0016;0.3756;0.1758;0.415
3.966000;-0.0412;0.3683;0.2093;0.426
3.970000;-0.0831;0.3869;0.3123;0.504
3.976000;-0.1394;0.4168;0.3387;0.555
3.981000;-0.1815;0.4317;0.4323;0.637
3.988000;-0.2069;0.4313;0.4782;0.676
3.992000;-0.2781;0.4587;0.5219;0.748
3.995000;-0.2825;0.4275;0.4894;0.709
4.011000;-0.2990;0.3907;0.4381;0.659
4.012000;-0.3012;0.4269;0.3896;0.652
4.012000;-0.3060;0.4119;0.2768;0.583
4.016000;-0.3131;0.4705;0.1620;0.588
4.021000;-0.3083;0.4640;0.0618;0.561
4.025000;-0.2749;0.5076;-0.0216;0.578
4.030000;-0.2922;0.5706;-0.0690;0.645
4.034000;-0.2717;0.6170;-0.0831;0.679
4.040000;-0.2731;0.6519;-0.1187;0.717
4.044000;-0.2533;0.6442;-0.1042;0.700
4.049000;-0.0855;0.6726;-0.0635;0.681
4.054000;-0.1237;0.7061;-0.0540;0.719
4.059000;-0.1241;0.7420;-0.0756;0.756
4.064000;-0.3828;0.7519;-0.0591;0.846
4.069000;-0.4620;0.7142;-0.0139;0.851
4.073000;-0.3430;0.7077;0.1794;0.807
4.078000;-0.1797;0.7082;0.3128;0.795
4.086000;-0.0287;0.6870;0.3457;0.770
4.088000;0.0122;0.6698;0.3596;0.760
4.093000;-0.0514;0.6924;0.3332;0.770
4.098000;-0.0328;0.6851;0.3334;0.763
4.111000;-0.0255;0.6933;0.2766;0.747
4.112000;-0.1040;0.7193;0.2082;0.756
4.112000;-0.0343;0.8038;0.1738;0.823
4.120000;-0.0871;0.8465;0.0322;0.852
4.123000;-0.0563;0.9144;-0.1568;0.929
4.128000;-0.0236;0.8835;-0.4098;0.974
4.132000;0.3127;0.8977;-0.5692;1.108
4.138000;0.3162;0.9378;-0.5633;1.139
4.143000;0.1760;0.9994;-0.7391;1.255
4.148000;0.1843;1.0132;-0.9075;1.373
4.153000;0.3414;1.0252;-1.0232;1.488
4.157000;0.4725;0.9279;-1.0435;1.474
4.162000;0.5564;0.9010;-1.1022;1.528
4.167000;0.6384;0.8823;-1.1851;1.609
4.172000;0.7926;0.8840;-1.2204;1.703
4.176000;0.8443;0.8893;-1.3014;1.788
4.182000;0.8705;0.8771;-1.2443;1.754
4.187000;0.8285;0.9143;-1.2785;1.777
4.195000;0.8524;0.9908;-1.2270;1.793
4.196000;0.8224;1.0184;-1.1163;1.720
4.213000;0.8694;1.0805;-1.0801;1.758
4.214000;0.8517;1.0623;-0.8842;1.623
4.214000;0.8453;1.0212;-0.9109;1.608
4.215000;0.8957;0.9694;-0.9309;1.615
4.220000;1.0178;0.9334;-0.8842;1.640
4.226000;1.0919;0.9608;-0.8715;1.696
4.230000;1.1587;0.9511;-0.8065;1.702
4.235000;1.1850;0.9118;-0.7707;1.682
4.240000;1.1802;0.8980;-0.6589;1.623
4.245000;1.1084;0.8263;-0.5118;1.474
4.250000;1.0437;0.7657;-0.3247;1.335
4.255000;0.9430;0.7261;-0.1622;1.201
4.259000;0.8592;0.7403;0.0404;1.135
4.265000;0.7420;0.7626;0.3047;1.107
4.269000;0.6157;0.7708;0.5208;1.116
4.274000;0.4922;0.7907;0.7822;1.216
4.279000;0.3839;0.7927;0.9170;1.271
4.286000;0.2952;0.8193;1.0209;1.342
4.289000;0.2267;0.7934;0.9700;1.274
4.293000;0.1639;0.8036;0.8791;1.202
4.298000;0.1428;0.8516;0.7914;1.171
4.307000;0.1586;0.8803;0.7093;1.142
4.308000;0.1775;0.9923;0.5251;1.137
4.314000;0.1658;1.0445;0.3490;1.114
4.319000;0.1571;1.0778;0.0900;1.093
4.323000;0.1755;1.1163;-0.2400;1.155
4.328000;0.2376;1.1317;-0.5117;1.265
4.332000;0.3315;1.1509;-0.8571;1.473
4.338000;0.4018;1.1626;-1.1206;1.664
4.343000;0.3789;1.1816;-1.3336;1.822
4.348000;0.3511;1.2395;-1.4725;1.957
4.352000;0.3066;1.2603;-1.5972;2.057
4.358000;0.2308;1.2754;-1.6384;2.089
4.362000;0.2337;1.2992;-1.5820;2.060
4.368000;0.2362;1.2982;-1.5213;2.014
4.373000;0.2333;1.2868;-1.3822;1.903
4.377000;0.2512;1.2597;-1.1933;1.753
4.382000;0.2871;1.2430;-1.0191;1.633
4.388000;0.2955;1.2385;-0.8787;1.547
4.392000;0.2743;1.2579;-0.6571;1.445
4.397000;0.2542;1.2460;-0.4716;1.356
4.405000;0.2210;1.2649;-0.4535;1.362
4.407000;0.2227;1.2283;-0.4592;1.330
4.411000;0.2334;1.1843;-0.4862;1.301
4.417000;0.2583;1.1903;-0.4797;1.309
4.434000;0.2714;1.1674;-0.4804;1.291
4.435000;0.2605;1.1397;-0.4810;1.264
4.436000;0.3042;1.2240;-0.3620;1.312
4.437000;0.3328;1.2051;-0.2455;1.274
4.440000;0.3990;1.2048;-0.4492;1.346
4.446000;0.4459;1.1611;-0.4661;1.328
4.451000;0.4907;1.1434;-0.6335;1.396
4.455000;0.5698;1.1325;-0.8125;1.506
4.461000;0.6451;1.1146;-0.9627;1.608
4.466000;0.6664;1.1284;-1.0078;1.653
4.471000;0.6790;1.1600;-0.9312;1.635
4.475000;0.6322;1.2333;-0.8574;1.630
4.480000;0.5498;1.2936;-0.8294;1.632
4.489000;0.3814;1.3666;-0.7540;1.607
4.490000;0.2944;1.4261;-0.6381;1.590
4.494000;0.3077;1.4190;-0.5536;1.554
4.500000;0.4838;1.4006;-0.2639;1.505
4.517000;0.4634;1.4918;0.0543;1.563
4.518000;0.2441;1.5607;0.3460;1.617
4.518000;0.1661;1.5899;0.4250;1.654
4.519000;0.1873;1.5503;0.5139;1.644
4.524000;0.2409;1.4678;0.4861;1.565
4.529000;0.3128;1.3302;0.3801;1.418
4.534000;0.4133;1.2855;0.3394;1.392
4.539000;0.4688;1.2000;0.3232;1.328
4.544000;0.4801;1.1954;0.3102;1.325
4.549000;0.5669;1.2288;0.2906;1.384
4.554000;0.6603;1.3053;0.3695;1.509
4.558000;0.7908;1.3772;0.4848;1.660
4.564000;0.8595;1.4112;0.6244;1.766
4.569000;0.8063;1.4722;0.6735;1.809
4.573000;0.7305;1.5246;0.7661;1.856
4.578000;0.6156;1.5468;0.8136;1.853
4.583000;0.4867;1.5606;0.8378;1.837
4.590000;0.3197;1.5944;0.8051;1.815
4.593000;0.1618;1.6556;0.6917;1.802
4.598000;-0.0244;1.6873;0.6746;1.817
4.605000;-0.0884;1.7144;0.7053;1.856
4.612000;-0.1330;1.7514;0.7457;1.908
4.614000;-0.2414;1.6911;0.7286;1.857
4.617000;-0.3062;1.6507;0.6589;1.804
4.636000;-0.2683;1.6354;0.5986;1.762
4.636000;0.0233;1.8099;0.5860;1.903
4.637000;0.7728;2.3178;0.1931;2.451
4.637000;1.2878;2.4887;0.4072;2.832
4.641000;1.2415;2.2047;0.6037;2.601
4.647000;1.0060;1.9755;0.7275;2.333
4.651000;0.6217;1.7845;0.7474;2.032
4.659000;0.2087;1.6816;0.6802;1.826
4.661000;-0.2771;1.6356;0.6287;1.774
4.666000;-0.7365;1.6001;0.6649;1.883
4.671000;-1.1265;1.5362;0.8631;2.091
4.676000;-1.3636;1.5199;1.1251;2.331
4.680000;-1.5213;1.4521;1.3555;2.502
4.688000;-1.6217;1.3585;1.6045;2.655
4.692000;-1.7240;1.2669;1.8365;2.820
4.695000;-1.7684;1.1265;1.9775;2.882
4.700000;-1.7869;0.9868;2.0875;2.920
4.716000;-1.7477;0.8472;2.1092;2.867
4.717000;-1.7037;0.6883;2.1097;2.798
4.718000;-1.6086;0.5937;2.0534;2.675
4.720000;-1.5438;0.4773;2.0406;2.603
4.725000;-1.5280;0.3914;2.0832;2.613
4.730000;-1.4943;0.3868;2.0043;2.530
4.734000;-1.4852;0.3007;1.8757;2.411
4.739000;-1.4378;0.2723;1.7788;2.303
4.744000;-1.3684;0.2134;1.6752;2.174
4.749000;-1.2934;0.1200;1.5838;2.048
4.754000;-1.2250;0.0234;1.4616;1.907
4.759000;-1.1585;-0.0614;1.3537;1.783
4.764000;-1.1080;-0.1652;1.2196;1.656
4.770000;-1.0398;-0.2994;1.1379;1.570
4.774000;-0.9921;-0.3826;1.0752;1.512
4.779000;-0.9693;-0.5247;1.0552;1.526
4.784000;-0.9500;-0.6086;1.0517;1.542
4.789000;-0.9479;-0.6658;1.0075;1.535
4.794000;-0.9701;-0.7256;0.9897;1.564
4.798000;-0.9348;-0.7791;0.8886;1.507
4.808000;-0.9114;-0.8363;0.7618;1.453
4.809000;-0.8539;-0.8760;0.5761;1.352
4.814000;-0.8199;-0.8700;0.4058;1.262
4.821000;-0.7280;-0.9140;0.1433;1.177
4.824000;-0.6407;-0.9266;-0.1611;1.138
4.829000;-0.5458;-0.9363;-0.4597;1.177
4.854000;-0.4176;-0.9091;-0.7979;1.280
4.855000;-0.2849;-0.8543;-1.1042;1.425
4.855000;-0.1814;-0.7829;-1.3646;1.584
4.855000;-0.0539;-0.6989;-1.6177;1.763
4.856000;0.0449;-0.5782;-1.8253;1.915
4.857000;0.0886;-0.5133;-2.0307;2.096
4.862000;0.1585;-0.4488;-2.2317;2.282
4.867000;0.1995;-0.3723;-2.3927;2.430
4.874000;0.2714;-0.3480;-2.5138;2.552
4.877000;0.2859;-0.3015;-2.5976;2.631
4.882000;0.3194;-0.2896;-2.6013;2.637
4.887000;0.3243;-0.2933;-2.5537;2.591
4.891000;0.2835;-0.3076;-2.4573;2.493
4.896000;0.2213;-0.3951;-2.2785;2.323
4.901000;0.1498;-0.4770;-2.1489;2.206
4.906000;0.1361;-0.5825;-2.0083;2.095
4.911000;0.0942;-0.6762;-1.8758;1.996
4.916000;0.0890;-0.7968;-1.7463;1.922
4.929000;0.0607;-0.9183;-1.6246;1.867
4.929000;0.0020;-1.0076;-1.4889;1.798
4.933000;-0.0609;-1.0437;-1.4181;1.762
4.935000;-0.1518;-1.0794;-1.3187;1.711
4.940000;-0.2158;-1.0936;-1.2481;1.673
4.946000;-0.2745;-1.0747;-1.1821;1.621
4.950000;-0.3016;-1.0663;-1.1421;1.591
4.955000;-0.3162;-1.0350;-1.1161;1.555
4.960000;-0.2535;-0.9907;-1.1183;1.515
4.965000;-0.1756;-0.9625;-1.1485;1.509
4.971000;-0.1115;-0.9814;-1.2211;1.571
4.975000;-0.0398;-0.8943;-1.3337;1.606
4.980000;0.0298;-0.8711;-1.4526;1.694
4.985000;0.1139;-0.7945;-1.5948;1.785
4.989000;0.2006;-0.6955;-1.7292;1.875
4.994000;0.2515;-0.6144;-1.9156;2.027
4.999000;0.3216;-0.5246;-2.1062;2.194
5.006000;0.3341;-0.4280;-2.2488;2.313
5.011000;0.3680;-0.3123;-2.4008;2.449
5.015000;0.3822;-0.2560;-2.5288;2.570
5.019000;0.3981;-0.2347;-2.5854;2.626
5.031000;0.3720;-0.2243;-2.6352;2.671
5.032000;0.3347;-0.2054;-2.6353;2.664
5.034000;0.2694;-0.1490;-2.5501;2.569
5.041000;0.2048;-0.0769;-2.4249;2.435
5.046000;0.1335;-0.0011;-2.2408;2.245
5.048000;0.0993;0.0781;-2.0621;2.066
5.054000;0.0690;0.1650;-1.9364;1.945
5.058000;0.0263;0.2263;-1.8064;1.821
5.063000;0.0242;0.2450;-1.7196;1.737
5.068000;-0.0305;0.2498;-1.6092;1.629
5.073000;-0.0540;0.2790;-1.5183;1.545
5.078000;-0.0097;0.3064;-1.4203;1.453
5.083000;-0.0073;0.3272;-1.2940;1.335
5.090000;0.0181;0.3700;-1.1822;1.239
5.092000;0.0326;0.4110;-1.0945;1.170
5.097000;0.0366;0.4570;-0.7680;0.894
5.102000;0.0606;0.5319;-0.8817;1.031
5.111000;0.0259;0.6307;-0.9115;1.109
5.112000;-0.0318;0.7103;-0.7333;1.021
5.117000;-0.0981;0.7923;-0.7226;1.077
5.122000;-0.1803;0.8718;-0.6545;1.105
5.127000;-0.2641;0.9632;-0.6103;1.170
5.131000;-0.3640;1.0451;-0.5280;1.226
5.136000;-0.4186;1.0982;-0.3931;1.239
5.142000;-0.4569;1.1705;-0.2944;1.291
5.146000;-0.4529;1.1925;-0.1264;1.282
5.151000;-0.3780;1.2022;0.0533;1.261
5.156000;-0.3257;1.1921;0.2259;1.256
5.161000;-0.2741;1.2461;0.4318;1.347
5.166000;-0.2249;1.3106;0.6164;1.466
5.171000;-0.1345;1.3691;0.8131;1.598
5.176000;-0.0646;1.4188;1.0125;1.744
5.181000;-0.0343;1.4428;1.1860;1.868
5.186000;-0.0340;1.4766;1.3455;1.998
5.191000;-0.0299;1.4963;1.4626;2.093
5.195000;-0.0649;1.5378;1.5467;2.182
5.201000;-0.1197;1.5222;1.5526;2.178
5.208000;-0.2874;1.5381;1.5615;2.211
5.211000;-0.4001;1.5302;1.5234;2.196
5.214000;-0.4242;1.4820;1.5291;2.171
5.245000;-0.4644;1.4128;1.5212;2.127
5.246000;-0.5195;1.2824;1.4924;2.035
5.247000;-0.5637;1.0812;1.4188;1.871
5.247000;-0.5911;0.8722;1.3265;1.694
5.247000;-0.6047;0.7102;1.2586;1.567
5.248000;-0.6823;0.5697;1.2003;1.494
5.249000;-0.7936;0.4628;1.2400;1.543
5.254000;-0.8450;0.3689;1.3509;1.636
5.259000;-0.8957;0.2856;1.5925;1.849
5.266000;-0.9330;0.1992;1.9547;2.175
5.269000;-0.9582;0.1623;2.4063;2.595
5.274000;-1.0408;0.1222;2.8826;3.067
5.279000;-1.0490;0.0543;3.3698;3.530
5.284000;-0.9811;0.0061;3.8322;3.956
5.297000;-0.8785;-0.0543;4.2415;4.332
5.298000;-0.7619;-0.0725;4.6126;4.676
5.298000;-0.6008;-0.0995;4.8957;4.933
5.303000;-0.4616;-0.0856;5.0839;5.105
5.310000;-0.3240;-0.0624;5.1272;5.138
5.313000;-0.1309;-0.0442;5.0427;5.045
5.318000;0.0680;-0.0602;4.7707;4.772
5.323000;0.3502;-0.1095;4.3973;4.413
5.327000;0.6248;-0.2256;3.9775;4.033
5.333000;0.8418;-0.3235;3.4655;3.581
5.338000;1.0027;-0.4575;2.9088;3.111
5.342000;1.1500;-0.5613;2.3597;2.684
5.347000;1.2351;-0.6894;1.8631;2.339
5.352000;1.2214;-0.7281;1.3685;1.974
5.357000;1.1133;-0.7870;0.9832;1.681
5.362000;0.9200;-0.8198;0.6756;1.405
5.368000;0.7038;-0.8745;0.4553;1.211
5.372000;0.4237;-0.9199;0.3053;1.058
5.377000;0.1705;-0.9759;0.2594;1.024
5.381000;-0.0467;-1.0694;0.2364;1.096
5.386000;-0.1900;-1.1822;0.2487;1.223
5.392000;-0.3060;-1.2914;0.2319;1.347
5.398000;-0.3691;-1.3906;0.1697;1.449
5.401000;-0.3969;-1.4668;0.0960;1.523
5.410000;-0.4088;-1.5322;0.0062;1.586
5.411000;-0.4056;-1.5472;-0.1543;1.607
5.415000;-0.3515;-1.5787;-0.2422;1.635
5.421000;-0.2667;-1.5838;-0.3865;1.652
5.444000;-0.1613;-1.5602;-0.5131;1.650
5.444000;-0.0770;-1.4978;-0.5983;1.615
5.445000;0.0218;-1.4611;-0.7212;1.630
5.445000;0.0872;-1.4016;-0.8150;1.624
5.446000;0.1290;-1.3740;-0.9443;1.672
5.450000;0.1479;-1.3205;-1.0376;1.686
5.455000;0.1228;-1.3220;-1.1356;1.747
5.460000;0.0447;-1.2751;-1.2075;1.757
5.465000;-0.0596;-1.2848;-1.2796;1.814
5.469000;-0.1936;-1.2907;-1.2851;1.832
5.475000;-0.2928;-1.3239;-1.2935;1.874
5.479000;-0.4138;-1.3149;-1.2284;1.846
5.484000;-0.5419;-1.3543;-1.1879;1.881
5.491000;-0.6625;-1.4087;-1.1026;1.908
5.494000;-0.7443;-1.4187;-1.0034;1.890
5.500000;-0.7943;-1.4469;-0.9286;1.894
5.504000;-0.8033;-1.4599;-0.8374;1.865
5.513000;-0.7929;-1.4416;-0.7464;1.807
5.513000;-0.7469;-1.4184;-0.6890;1.745
5.518000;-0.6630;-1.3264;-0.6458;1.617
5.523000;-0.5964;-1.2448;-0.5856;1.499
5.528000;-0.4727;-1.1118;-0.5251;1.317
5.533000;-0.3058;-0.9732;-0.5047;1.138
5.539000;-0.1407;-0.8175;-0.4789;0.958
5.544000;-0.0016;-0.6641;-0.5264;0.847
5.548000;0.1571;-0.5418;-0.5993;0.823
5.553000;0.3112;-0.3977;-0.7000;0.863
5.558000;0.4871;-0.2580;-0.8693;1.029
5.564000;0.6153;-0.1174;-1.0282;1.204
5.568000;0.7341;0.0198;-1.1843;1.393
5.573000;0.8268;0.1562;-1.3470;1.588
5.578000;0.8913;0.2613;-1.5046;1.768
5.582000;0.9923;0.3567;-1.5832;1.902
5.587000;1.1062;0.4144;-1.6763;2.051
5.593000;1.2189;0.4584;-1.6954;2.138
5.597000;1.2757;0.4794;-1.7554;2.222
5.602000;1.3034;0.4724;-1.8038;2.275
5.608000;1.2477;0.4903;-1.8716;2.302
5.611000;1.2262;0.5260;-1.9064;2.327
5.616000;1.1079;0.4769;-1.9369;2.282
5.636000;0.9741;0.4221;-1.9538;2.224
5.637000;0.7574;0.3449;-1.9735;2.142
5.637000;0.5222;0.3049;-1.9867;2.077
5.638000;0.2845;0.2159;-2.0003;2.032
5.645000;0.1084;0.1544;-1.9712;1.980
5.646000;-0.0619;0.0842;-1.9354;1.938
5.651000;-0.2101;0.0264;-1.8591;1.871
5.657000;-0.2965;-0.0287;-1.7782;1.803
5.661000;-0.3694;-0.0315;-1.7139;1.754
5.666000;-0.4102;-0.0156;-1.6519;1.702
5.671000;-0.4171;0.0309;-1.5897;1.644
5.675000;-0.4048;0.1100;-1.5320;1.588
5.681000;-0.3588;0.2025;-1.4980;1.554
5.685000;-0.2956;0.3252;-1.4397;1.505
5.692000;-0.2674;0.4422;-1.4267;1.517
5.695000;-0.1498;0.5636;-1.3609;1.481
5.703000;-0.0740;0.6655;-1.3477;1.505
5.704000;0.0917;0.7408;-1.3249;1.521
5.725000;0.2399;0.8206;-1.3093;1.564
5.726000;0.3586;0.8744;-1.2627;1.577
5.726000;0.4389;0.9406;-1.1853;1.576
5.727000;0.5433;1.0171;-1.0700;1.573
5.729000;0.6217;1.1014;-0.9457;1.579
5.734000;0.7076;1.1556;-0.7909;1.569
5.740000;0.7295;1.1868;-0.6509;1.538
5.744000;0.7449;1.1947;-0.4971;1.493
5.749000;0.7349;1.1937;-0.3677;1.449
5.754000;0.7239;1.1979;-0.2505;1.422
5.759000;0.7100;1.2093;-0.0905;1.405
5.765000;0.6501;1.1681;0.1362;1.344
5.768000;0.6189;1.2125;-0.1128;1.366
5.774000;0.4893;1.2565;0.0307;1.349
5.778000;0.3856;1.2139;0.0618;1.275
5.783000;0.2785;1.1947;0.0238;1.227
5.788000;0.1671;1.1605;0.0029;1.172
5.794000;0.1320;1.1303;-0.0319;1.138
5.798000;0.1106;1.1284;-0.0188;1.134
5.802000;0.1523;1.1189;0.0065;1.129
5.832000;0.2473;1.0852;0.0272;1.113
5.833000;0.3521;1.0728;0.0383;1.130
5.834000;0.4738;1.0337;0.1452;1.146
5.834000;0.6288;1.0138;0.2758;1.224
5.834000;0.7567;0.9964;0.4660;1.335
5.834000;0.7883;0.9603;0.7298;1.441
5.837000;0.7975;0.9197;0.9597;1.550
5.842000;0.7682;0.8626;1.3016;1.740
5.846000;0.7341;0.7795;1.5832;1.911
5.852000;0.6749;0.6774;1.8788;2.108
5.857000;0.6103;0.5394;2.1095;2.261
5.861000;0.5200;0.4255;2.3520;2.446
5.866000;0.3330;0.3571;2.5990;2.644
5.871000;0.1290;0.2574;2.8362;2.851
5.876000;-0.0705;0.1601;3.0397;3.045
5.881000;-0.2941;0.0436;3.1451;3.159
5.886000;-0.5417;-0.0805;3.2481;3.294
5.891000;-0.6869;-0.2172;3.2845;3.363
5.896000;-0.7707;-0.3477;3.2950;3.402
5.900000;-0.7932;-0.5199;3.1674;3.306
5.906000;-0.7736;-0.6909;3.0262;3.199
5.911000;-0.7265;-0.7842;2.7998;2.997
5.915000;-0.6761;-0.8646;2.5670;2.792
5.922000;-0.6392;-0.8572;2.2944;2.531
5.951000;-0.6021;-0.8769;2.0175;2.281
5.952000;-0.5106;-0.8656;1.8128;2.073
5.952000;-0.3915;-0.8470;1.5845;1.839
5.952000;-0.2529;-0.8421;1.3944;1.648
5.953000;-0.0975;-0.8722;1.2735;1.547
5.953000;-0.0093;-0.8798;1.1810;1.473
5.955000;0.0069;-0.8700;1.1051;1.406
5.959000;-0.0124;-0.7926;1.0504;1.316
5.964000;-0.0280;-0.7107;1.0032;1.230
5.971000;-0.0458;-0.5627;0.8845;1.049
5.976000;-0.1157;-0.4761;0.7380;0.886
5.979000;-0.1316;-0.3843;0.5281;0.666
5.983000;-0.1390;-0.3762;0.2453;0.470
5.988000;-0.0832;-0.3560;-0.1270;0.387
6.000000;-0.0389;-0.3851;-0.4813;0.618
6.000000;0.0413;-0.4124;-0.9090;0.999
6.003000;0.1373;-0.4203;-1.3433;1.414
6.010000;0.2387;-0.4171;-1.7132;1.779
6.013000;0.3906;-0.3538;-2.0145;2.082
6.018000;0.5684;-0.2771;-2.2407;2.328
6.023000;0.7956;-0.2200;-2.3802;2.519
6.028000;1.0458;-0.1813;-2.3619;2.589
6.033000;1.2612;-0.1579;-2.2627;2.595
6.038000;1.3971;-0.1331;-2.0278;2.466
6.043000;1.4777;-0.1138;-1.7171;2.268
6.048000;1.4993;-0.1342;-1.2539;1.959
6.053000;1.4486;-0.1944;-0.7673;1.651
6.058000;1.3298;-0.3579;-0.3428;1.419
6.062000;1.1628;-0.5822;0.1205;1.306
6.067000;0.9179;-0.8041;0.5084;1.322
6.072000;0.6361;-1.0479;0.8522;1.493
6.077000;0.2890;-1.2627;1.1478;1.731
6.081000;-0.0516;-1.4562;1.3527;1.988
6.087000;-0.3454;-1.6420;1.5128;2.259
6.094000;-0.6476;-1.8230;1.5639;2.488
6.096000;-0.8890;-1.9432;1.5019;2.612
6.102000;-1.0842;-2.0768;1.3437;2.701
6.106000;-1.2290;-2.1577;1.1612;2.741
6.132000;-1.3144;-2.2122;0.8733;2.717
6.133000;-1.3578;-2.1614;0.6067;2.624
6.133000;-1.3432;-2.0888;0.2586;2.497
6.134000;-1.2760;-1.9725;-0.1305;2.353
6.134000;-1.1810;-1.7544;-0.4558;2.163
6.136000;-1.0565;-1.5321;-0.7509;2.007
6.141000;-0.9103;-1.3026;-1.0329;1.895
6.147000;-0.7670;-1.0773;-1.2660;1.831
6.151000;-0.5811;-0.8842;-1.4698;1.811
6.155000;-0.3500;-0.7181;-1.5966;1.785
6.160000;-0.1405;-0.5670;-1.6849;1.783
6.165000;0.0452;-0.4114;-1.7395;1.788
6.171000;0.2197;-0.3063;-1.7891;1.828
6.175000;0.3451;-0.1727;-1.7813;1.823
6.180000;0.4410;-0.0991;-1.7280;1.786
6.185000;0.5365;-0.0017;-1.6604;1.745
6.190000;0.6365;0.0691;-1.5736;1.699
6.194000;0.6626;0.1132;-1.5442;1.684
6.199000;0.6366;0.0801;-1.5194;1.649
6.204000;0.5639;0.0298;-1.5852;1.683
6.227000;0.3938;-0.0019;-1.6267;1.674
6.228000;0.2030;-0.0674;-1.6490;1.663
6.229000;-0.0858;-0.0875;-1.7261;1.730
6.229000;-0.3367;-0.0833;-1.7650;1.799
6.230000;-0.5598;-0.0953;-1.7825;1.871
6.233000;-0.7653;-0.1039;-1.7501;1.913
6.239000;-0.8723;-0.0998;-1.7275;1.938
6.243000;-0.9524;-0.1231;-1.6481;1.907
6.249000;-0.9775;-0.1287;-1.5164;1.809
6.253000;-0.9566;-0.1403;-1.3733;1.680
6.258000;-0.9353;-0.1056;-1.2426;1.559
6.263000;-0.8699;-0.0343;-1.0764;1.384
6.268000;-0.7988;0.0109;-0.9104;1.211
6.272000;-0.7092;0.1184;-0.7542;1.042
6.278000;-0.6347;0.2044;-0.6507;0.932
6.283000;-0.5535;0.3070;-0.5569;0.843
6.288000;-0.4536;0.3973;-0.5012;0.784
6.294000;-0.3488;0.5041;-0.4861;0.782
6.297000;-0.2468;0.5820;-0.4374;0.769
6.302000;-0.1759;0.6599;-0.4031;0.793
6.330000;-0.1077;0.7594;-0.3952;0.863
6.331000;-0.0750;0.8806;-0.3372;0.946
6.331000;-0.0610;0.9759;-0.2506;1.009
6.331000;-0.0891;1.0548;-0.1239;1.066
6.331000;-0.1113;1.1057;0.0120;1.111
6.332000;-0.1459;1.1304;0.1571;1.151
6.336000;-0.2166;1.1292;0.2658;1.180
6.342000;-0.2917;1.0829;0.3024;1.162
6.348000;-0.3808;1.0109;0.3553;1.137
6.351000;-0.4933;0.9104;0.3672;1.099
6.356000;-0.6105;0.8178;0.4384;1.111
6.362000;-0.7591;0.7428;0.4708;1.162
6.366000;-0.9110;0.6756;0.5530;1.262
6.371000;-1.1068;0.6474;0.6227;1.425
6.376000;-1.2272;0.6435;0.7352;1.569
6.381000;-1.3085;0.6540;0.8450;1.689
6.386000;-1.3672;0.6619;0.9379;1.785
6.391000;-1.3891;0.7097;1.0454;1.878
6.396000;-1.4002;0.7205;1.1195;1.932
6.400000;-1.4028;0.7490;1.1343;1.953
6.405000;-1.4348;0.7903;1.0587;1.950
6.430000;-1.4508;0.8298;0.9719;1.933
6.431000;-1.4554;0.8750;0.8139;1.883
6.431000;-1.4323;0.9211;0.5945;1.804
6.432000;-1.4174;0.9158;0.3996;1.734
6.432000;-1.3782;0.8937;0.1022;1.646
6.435000;-1.3417;0.9410;0.0156;1.639
6.440000;-1.3257;0.9410;0.0675;1.627
6.448000;-1.2540;0.9898;-0.0147;1.598
6.449000;-1.1252;1.0401;0.1178;1.537
6.455000;-0.9253;1.0390;0.2785;1.419
6.459000;-0.7505;1.0249;0.5582;1.388
6.464000;-0.5870;0.9828;0.8829;1.446
6.469000;-0.3724;0.9460;1.2265;1.593
6.474000;-0.2242;0.8683;1.6202;1.852
6.478000;-0.0796;0.8207;1.9904;2.154
6.483000;-0.0219;0.7308;2.3251;2.437
6.489000;-0.0020;0.6581;2.5722;2.655
6.495000;0.0164;0.6163;2.7987;2.866
6.498000;0.0752;0.5789;2.9283;2.986
6.503000;0.1290;0.4737;3.0376;3.077
6.527000;0.2289;0.3966;3.0407;3.075
6.528000;0.3633;0.2780;2.9328;2.968
6.529000;0.5327;0.1327;2.7833;2.837
6.529000;0.6992;-0.0486;2.5132;2.609
6.529000;0.7943;-0.1239;2.2560;2.395
6.533000;0.8896;-0.2031;1.9566;2.159
6.537000;0.9499;-0.1939;1.6814;1.941
6.543000;0.9849;-0.1868;1.3702;1.698
6.548000;1.0282;-0.1856;1.0705;1.496
6.552000;1.0368;-0.1731;0.8466;1.350
6.557000;1.0895;-0.1863;0.5688;1.243
6.562000;1.1361;-0.2584;0.3373;1.213
6.567000;1.1354;-0.3886;0.1828;1.214
6.572000;1.1637;-0.4496;0.0644;1.249
6.578000;1.1081;-0.5558;0.0201;1.240
6.582000;1.0547;-0.6524;0.0476;1.241
6.586000;0.9291;-0.7968;0.1372;1.232
6.592000;0.8128;-0.9297;0.2964;1.270
6.596000;0.7124;-1.1234;0.4871;1.417
6.600000;0.5992;-1.3189;0.6475;1.587
6.606000;0.5179;-1.5504;0.7567;1.801
6.646000;0.3964;-1.7229;0.8700;1.970
6.647000;0.3149;-1.8705;0.9305;2.113
6.647000;0.2538;-2.0126;1.0481;2.283
6.648000;0.2095;-2.0783;1.1040;2.363
6.648000;0.1388;-2.0676;1.1481;2.369
6.648000;0.1152;-2.0625;1.2168;2.397
6.649000;0.1625;-2.0269;1.2597;2.392
6.649000;0.2424;-1.9517;1.2745;2.344
6.650000;0.3436;-1.8417;1.2875;2.273
6.655000;0.4788;-1.7140;1.2248;2.160
6.660000;0.6017;-1.6349;1.0741;2.047
6.665000;0.7636;-1.5282;0.8833;1.923
6.670000;0.8700;-1.5056;0.6234;1.847
6.674000;0.9525;-1.4704;0.3875;1.794
6.679000;0.9516;-1.4744;0.1557;1.762
6.684000;0.9484;-1.4668;-0.0647;1.748
6.690000;0.8926;-1.4920;-0.2599;1.758
6.697000;0.8295;-1.5424;-0.3727;1.791
6.700000;0.6967;-1.5698;-0.3794;1.759
6.703000;0.4915;-1.6535;-0.3563;1.761
6.708000;0.2784;-1.7242;-0.2198;1.760
6.730000;0.0118;-1.7439;-0.0965;1.747
6.731000;-0.2322;-1.7930;0.0095;1.808
6.731000;-0.4495;-1.7792;0.1703;1.843
6.732000;-0.6977;-1.7897;0.3242;1.948
6.735000;-0.9195;-1.7703;0.3998;2.035
6.738000;-1.1587;-1.7127;0.4789;2.123
6.743000;-1.2869;-1.7088;0.4686;2.190
6.750000;-1.4053;-1.6442;0.4242;2.204
6.753000;-1.4282;-1.5912;0.3290;2.163
6.758000;-1.4116;-1.5287;0.1666;2.087
6.765000;-1.3391;-1.4738;-0.0008;1.991
6.768000;-1.1966;-1.3666;-0.2283;1.831
6.773000;-1.0442;-1.2908;-0.4918;1.732
6.778000;-0.8717;-1.1743;-0.7485;1.643
6.783000;-0.6550;-0.9569;-0.9938;1.527
6.787000;-0.4725;-0.8076;-1.1682;1.497
6.795000;-0.3167;-0.6587;-1.3462;1.532
6.798000;-0.1421;-0.4762;-1.5208;1.600
6.802000;0.0303;-0.3572;-1.6852;1.723
6.808000;0.1678;-0.1719;-1.7917;1.808
6.834000;0.2777;-0.0418;-1.8741;1.895
6.835000;0.3229;0.0577;-1.9279;1.956
6.836000;0.3665;0.1366;-1.9749;2.013
6.836000;0.3755;0.2238;-2.0031;2.050
6.837000;0.3339;0.2333;-2.0102;2.051
6.837000;0.3112;0.2345;-2.0059;2.043
6.841000;0.2643;0.2371;-1.9639;1.996
6.850000;0.2145;0.1694;-1.9250;1.944
6.852000;0.1736;0.1579;-1.8794;1.894
6.856000;0.0908;0.1402;-1.8175;1.825
6.861000;0.0710;0.0659;-1.7489;1.752
6.865000;0.0613;0.0734;-1.6637;1.666
6.870000;0.1183;0.0502;-1.6266;1.632
6.876000;0.1940;0.0343;-1.5394;1.552
6.881000;0.2543;0.0375;-1.4929;1.515
6.885000;0.3180;0.0477;-1.3890;1.426
6.891000;0.4490;0.0913;-1.2612;1.342
6.895000;0.5874;0.1538;-1.1383;1.290
6.900000;0.6495;0.2041;-0.9676;1.183
6.905000;0.7406;0.2709;-0.8065;1.128
6.913000;0.8252;0.2967;-0.6550;1.095
6.916000;0.8802;0.3363;-0.5225;1.077
6.919000;0.9085;0.3348;-0.3972;1.047
6.924000;0.9586;0.3351;-0.3244;1.066
6.950000;0.9973;0.3251;-0.2848;1.087
6.951000;1.0013;0.3383;-0.2354;1.083
6.951000;0.9563;0.3440;-0.2338;1.043
6.952000;0.9130;0.3852;-0.3014;1.036
6.952000;0.8476;0.4260;-0.3426;1.009
6.954000;0.7842;0.4741;-0.4149;1.006
6.958000;0.7730;0.5367;-0.4802;1.057
6.964000;0.7277;0.5784;-0.5528;1.082
6.968000;0.7007;0.6517;-0.5994;1.129
6.974000;0.6802;0.6904;-0.6489;1.166
6.980000;0.6731;0.7470;-0.6703;1.208
6.983000;0.7032;0.8171;-0.6708;1.270
6.988000;0.7200;0.8312;-0.6122;1.259
6.993000;0.6875;0.9016;-0.5519;1.261
6.999000;0.6701;0.9637;-0.4778;1.267
7.003000;0.5721;1.0243;-0.4043;1.241
7.007000;0.4703;1.1240;-0.3266;1.261
7.035000;0.3265;1.2052;-0.2301;1.270
7.035000;0.1767;1.2750;-0.1412;1.295
7.036000;0.0278;1.3783;-0.0812;1.381
7.036000;-0.1609;1.4934;0.0027;1.502
7.036000;-0.2920;1.5721;0.0723;1.601
7.037000;-0.3754;1.6453;0.1230;1.692
7.042000;-0.4427;1.7199;0.1596;1.783
7.050000;-0.4681;1.7386;0.1489;1.807
7.052000;-0.4474;1.7322;0.1482;1.795
7.057000;-0.4501;1.7415;0.1720;1.807
7.062000;-0.3764;1.7354;0.2535;1.794
7.066000;-0.3052;1.7187;0.3235;1.775
7.072000;-0.2557;1.7008;0.3963;1.765
7.076000;-0.1564;1.6817;0.5032;1.762
7.082000;-0.0687;1.6376;0.5411;1.726
7.088000;0.0241;1.5736;0.6272;1.694
7.091000;0.1346;1.4752;0.6730;1.627
7.098000;0.2480;1.4073;0.5565;1.534
7.101000;0.3530;1.2770;0.9902;1.654
7.105000;0.4589;1.1779;0.9908;1.606
7.134000;0.5399;1.0796;1.1943;1.698
7.135000;0.5125;0.9795;1.4691;1.839
7.135000;0.4587;0.9186;1.7170;2.001
7.136000;0.3239;0.8319;2.0074;2.197
7.136000;0.1593;0.7742;2.2496;2.384
7.137000;-0.0512;0.7164;2.4414;2.545
7.140000;-0.2422;0.6724;2.6473;2.742
7.145000;-0.4663;0.5989;2.7673;2.869
7.150000;-0.6279;0.5146;2.8230;2.937
7.154000;-0.7658;0.4075;2.7859;2.918
7.159000;-0.8591;0.3256;2.7399;2.890
7.164000;-0.8842;0.2353;2.6084;2.764
7.170000;-0.8608;0.2135;2.4416;2.598
7.174000;-0.7868;0.2313;2.2874;2.430
7.179000;-0.6771;0.2940;2.1432;2.267
7.185000;-0.4937;0.3921;2.0089;2.106
7.189000;-0.3400;0.4734;1.8749;1.963
7.197000;-0.1632;0.5831;1.7890;1.889
7.198000;0.0247;0.6904;1.6793;1.816
7.203000;0.2142;0.7119;1.5839;1.750
7.209000;0.3292;0.7339;1.4742;1.679
7.236000;0.3938;0.7157;1.3931;1.615
7.236000;0.3674;0.6674;1.3356;1.538
7.237000;0.2814;0.5862;1.2445;1.404
7.237000;0.1410;0.5227;1.1125;1.237
7.238000;-0.0200;0.3861;1.0113;1.083
7.238000;-0.2227;0.3176;0.8978;0.978
7.243000;-0.4882;0.1685;0.8152;0.965
7.251000;-0.6516;-0.0225;0.7226;0.973
7.253000;-0.8188;-0.2344;0.5726;1.026
7.258000;-0.9376;-0.4407;0.4512;1.130
7.262000;-0.9989;-0.6417;0.3084;1.227
7.267000;-1.0728;-0.8420;0.1202;1.369
7.272000;-1.0258;-0.9699;-0.0083;1.412
7.277000;-1.0116;-1.0803;-0.1559;1.488
7.281000;-0.9924;-1.1563;-0.3011;1.553
7.286000;-0.9540;-1.1932;-0.4226;1.585
7.291000;-0.9086;-1.1859;-0.5156;1.580
7.297000;-0.8250;-1.2062;-0.6161;1.586
7.301000;-0.6989;-1.2154;-0.6382;1.540
7.306000;-0.6115;-1.2469;-0.6417;1.530
7.330000;-0.5106;-1.2620;-0.5671;1.475
7.330000;-0.4009;-1.2800;-0.4598;1.418
7.331000;-0.3014;-1.2671;-0.2961;1.336
7.331000;-0.2117;-1.3001;-0.0784;1.320
7.331000;-0.1194;-1.3338;0.1075;1.343
7.335000;-0.1098;-1.3641;0.3215;1.406
7.341000;-0.1131;-1.3746;0.4300;1.445
7.346000;-0.1849;-1.4258;0.5935;1.555
7.351000;-0.2892;-1.3868;0.7738;1.614
7.355000;-0.3726;-1.3921;0.8708;1.684
7.360000;-0.4898;-1.3732;0.8920;1.709
7.365000;-0.5372;-1.4166;0.8355;1.730
7.370000;-0.5246;-1.4536;0.7085;1.700
7.375000;-0.4776;-1.5538;0.4707;1.692
7.380000;-0.3961;-1.6289;0.1390;1.682
7.385000;-0.2536;-1.7669;-0.2604;1.804
7.390000;-0.0310;-1.8599;-0.6965;1.986
7.398000;0.1514;-1.9094;-1.1266;2.222
7.399000;0.2810;-1.8908;-1.5247;2.445
7.404000;0.3594;-1.8008;-1.9319;2.665
7.409000;0.4005;-1.7055;-2.2266;2.833
7.439000;0.4637;-1.5370;-2.4476;2.927
7.440000;0.5368;-1.3380;-2.5498;2.929
7.441000;0.5645;-1.1393;-2.6219;2.914
7.441000;0.5467;-0.9913;-2.6280;2.861
7.442000;0.5291;-0.9058;-2.5539;2.761
7.442000;0.5115;-0.7946;-2.4688;2.643
7.443000;0.4555;-0.7106;-2.2889;2.440
7.450000;0.3967;-0.6447;-2.1122;2.244
7.454000;0.2921;-0.5877;-1.9598;2.067
7.458000;0.2110;-0.5544;-1.7719;1.869
7.463000;0.1155;-0.5192;-1.6008;1.687
7.468000;-0.0015;-0.5586;-1.5323;1.631
7.472000;-0.1825;-0.6037;-1.5114;1.638
7.477000;-0.2718;-0.6642;-1.5617;1.719
7.482000;-0.3961;-0.7014;-1.6666;1.851
7.487000;-0.5361;-0.7628;-1.7737;2.004
7.492000;-0.6615;-0.7759;-1.8354;2.100
7.498000;-0.7415;-0.7715;-1.8330;2.122
7.502000;-0.8130;-0.6894;-1.8166;2.106
7.507000;-0.8905;-0.6202;-1.7435;2.054
7.533000;-1.0002;-0.5114;-1.6138;1.966
7.534000;-1.0272;-0.3849;-1.5180;1.873
7.535000;-1.0240;-0.2768;-1.3296;1.701
7.535000;-0.9979;-0.2019;-1.1630;1.546
7.535000;-0.9490;-0.1367;-1.0467;1.419
7.536000;-0.8990;-0.0837;-0.9398;1.303
7.541000;-0.8623;0.0018;-0.8327;1.199
7.546000;-0.8034;0.0364;-0.7825;1.122
7.551000;-0.7344;0.0964;-0.6650;0.995
7.556000;-0.6913;0.1628;-0.5925;0.925
7.561000;-0.6069;0.2258;-0.5459;0.847
7.565000;-0.5433;0.3047;-0.4844;0.789
7.571000;-0.4667;0.4068;-0.3796;0.726
7.575000;-0.4012;0.5296;-0.2673;0.716
7.580000;-0.3390;0.6515;-0.1213;0.744
7.585000;-0.2852;0.7607;0.0250;0.813
7.590000;-0.2319;0.8857;0.1669;0.931
7.595000;-0.1504;0.9426;0.2947;0.999
7.600000;-0.0424;1.0081;0.3559;1.070
7.604000;0.0396;1.0079;0.3984;1.085
7.609000;0.1388;1.0139;0.4055;1.101
7.635000;0.2049;1.0167;0.4010;1.112
7.636000;0.2765;1.0262;0.3321;1.113
7.636000;0.3079;1.0258;0.2683;1.104
7.636000;0.2919;1.0615;0.2474;1.128
7.636000;0.2929;1.0284;0.2526;1.099
7.639000;0.3419;1.0271;0.3052;1.125
7.645000;0.3455;1.0195;0.3885;1.144
7.649000;0.3355;1.0177;0.4258;1.153
7.653000;0.3123;0.9762;0.4791;1.131
7.659000;0.2001;0.9954;0.5461;1.153
7.664000;0.0925;0.9509;0.6171;1.137
7.668000;0.0043;0.9165;0.6852;1.144
7.674000;-0.0955;0.9066;0.7406;1.175
7.678000;-0.2282;0.8397;0.7572;1.153
7.684000;-0.3030;0.8016;0.7351;1.129
7.689000;-0.4161;0.7540;0.7009;1.110
7.694000;-0.4864;0.6967;0.6976;1.099
7.699000;-0.5293;0.6583;0.7110;1.104
7.703000;-0.5619;0.6338;0.6720;1.081
7.707000;-0.6113;0.6041;0.6286;1.065
7.737000;-0.6228;0.5881;0.5497;1.018
7.738000;-0.5853;0.5667;0.4929;0.952
7.738000;-0.5565;0.5566;0.4797;0.922
7.739000;-0.4796;0.5603;0.4575;0.868
7.739000;-0.4123;0.5828;0.4715;0.856
7.739000;-0.3260;0.6241;0.4526;0.837
7.743000;-0.2758;0.6842;0.4150;0.846
7.748000;-0.2328;0.7251;0.4255;0.872
7.754000;-0.1226;0.7541;0.4314;0.877
7.757000;0.0190;0.7572;0.4278;0.870
7.762000;0.1990;0.7343;0.6944;1.030
7.771000;0.4031;0.6308;0.3250;0.816
7.771000;0.6331;0.5065;0.3121;0.869
7.777000;0.8342;0.3475;0.3947;0.986
7.782000;0.9889;0.2019;0.3816;1.079
7.787000;1.0761;0.0605;0.4898;1.184
7.791000;1.0528;-0.0815;0.6240;1.227
7.801000;1.0085;-0.1713;0.8315;1.318
7.803000;0.9526;-0.2470;1.0693;1.453
7.805000;0.9434;-0.3137;1.2655;1.609
7.810000;0.9785;-0.4288;1.4897;1.833
7.856000;1.0516;-0.5494;1.7155;2.086
7.857000;1.1102;-0.6592;1.9764;2.361
7.857000;1.2177;-0.7821;2.1791;2.616
7.858000;1.2767;-0.8824;2.3427;2.810
7.859000;1.3219;-0.9487;2.4983;2.981
7.859000;1.3162;-1.0120;2.5955;3.081
7.859000;1.2871;-1.0967;2.6440;3.138
7.860000;1.2188;-1.1406;2.6554;3.137
7.860000;1.0643;-1.2183;2.5989;3.061
7.860000;0.8435;-1.2625;2.4861;2.913
7.866000;0.6139;-1.3381;2.3365;2.762
7.869000;0.3612;-1.3901;2.0902;2.536
7.874000;0.0850;-1.4094;1.8554;2.332
7.879000;-0.1293;-1.4508;1.5890;2.156
7.885000;-0.3337;-1.5314;1.3514;2.070
7.889000;-0.4454;-1.5602;1.0734;1.945
7.895000;-0.5291;-1.6067;0.8464;1.892
7.899000;-0.4906;-1.6470;0.6513;1.838
7.904000;-0.4232;-1.6240;0.4599;1.740
7.909000;-0.3759;-1.5879;0.3346;1.666
7.934000;-0.3049;-1.4814;0.1893;1.524
7.934000;-0.2228;-1.3716;0.0935;1.393
7.935000;-0.1134;-1.2611;-0.0125;1.266
7.935000;0.0114;-1.1377;-0.0595;1.139
7.937000;0.1398;-0.9823;-0.1315;1.001
7.939000;0.2773;-0.8497;-0.1591;0.908
7.943000;0.3888;-0.7560;-0.2193;0.878
7.948000;0.4560;-0.6533;-0.2524;0.836
7.956000;0.5039;-0.6223;-0.3067;0.857
7.957000;0.5384;-0.5717;-0.3395;0.856
7.962000;0.5107;-0.5870;-0.3847;0.868
7.968000;0.4529;-0.6657;-0.4185;0.907
7.972000;0.3636;-0.7187;-0.4293;0.913
7.977000;0.2697;-0.7797;-0.3695;0.904
7.982000;0.1526;-0.8365;-0.3158;0.907
7.987000;0.0146;-0.8913;-0.2514;0.926
7.992000;-0.1725;-0.9399;-0.2193;0.980
7.996000;-0.3326;-0.9845;-0.1429;1.049
8.001000;-0.4519;-0.9853;-0.1844;1.100
8.007000;-0.5281;-1.0261;-0.2024;1.172
8.011000;-0.5909;-1.0022;-0.2518;1.190
8.027000;-0.6167;-0.9447;-0.2774;1.162
8.028000;-0.5993;-0.8590;-0.3529;1.105
8.028000;-0.5939;-0.7714;-0.4520;1.073
8.038000;-0.5294;-0.6536;-0.5697;1.016
8.038000;-0.4748;-0.5245;-0.6701;0.974
8.041000;-0.3898;-0.4227;-0.7915;0.978
8.046000;-0.2695;-0.2761;-0.8503;0.934
8.052000;-0.1740;-0.1756;-0.9278;0.960
8.056000;-0.0839;-0.0783;-1.0215;1.028
8.062000;-0.0135;-0.0177;-1.0765;1.077
8.066000;0.0399;0.0592;-1.1600;1.162
8.071000;0.0766;0.1212;-1.1761;1.185
8.076000;0.1063;0.2016;-1.1969;1.218
8.082000;0.1266;0.2553;-1.1959;1.229
8.086000;0.1236;0.2823;-1.1566;1.197
8.091000;0.1689;0.2827;-1.1268;1.174
8.095000;0.1809;0.2563;-1.1064;1.150
8.100000;0.1237;0.2223;-1.0883;1.118
8.105000;0.0692;0.1306;-1.0604;1.071
8.110000;0.0100;0.0315;-1.0372;1.038
8.117000;-0.0877;-0.0440;-1.0162;1.021
8.120000;-0.2289;-0.1030;-0.9902;1.021
8.128000;-0.3827;-0.1575;-0.9472;1.034
8.163000;-0.5185;-0.2077;-0.8920;1.052
8.164000;-0.5933;-0.2536;-0.8388;1.058
8.164000;-0.6743;-0.2546;-0.7806;1.062
8.165000;-0.7305;-0.2874;-0.7481;1.084
8.165000;-0.7450;-0.2705;-0.7369;1.082
8.165000;-0.7891;-0.2473;-0.7468;1.114
8.165000;-0.7816;-0.2342;-0.7610;1.116
8.166000;-0.7056;-0.1787;-0.7797;1.067
8.168000;-0.6280;-0.1261;-0.8579;1.071
8.174000;-0.5415;-0.0903;-0.9263;1.077
8.179000;-0.4481;-0.0230;-0.9877;1.085
8.185000;-0.2784;0.0181;-0.9917;1.030
8.188000;-0.1686;0.0696;-0.9602;0.977
8.192000;0.0103;0.1670;-0.9649;0.979
8.200000;0.1724;0.2673;-0.9890;1.039
8.204000;0.2870;0.3422;-0.9442;1.044
8.213000;0.4501;0.4584;-0.8807;1.090
8.214000;0.5972;0.5509;-0.8081;1.146
8.247000;0.6926;0.6151;-0.7597;1.198
8.248000;0.7984;0.6889;-0.7164;1.275
8.249000;0.8572;0.7511;-0.7187;1.347
8.249000;0.9051;0.8301;-0.6687;1.398
8.249000;0.9114;0.8949;-0.6525;1.434
8.250000;0.8619;0.9191;-0.6771;1.430
8.250000;0.7900;0.8957;-0.6564;1.363
8.252000;0.7151;0.9227;-0.6624;1.342
8.257000;0.5890;0.9211;-0.6302;1.262
8.262000;0.5263;0.9219;-0.6101;1.224
8.271000;0.4191;0.9156;-0.5591;1.152
8.271000;0.3200;0.8855;-0.5846;1.108
8.276000;0.1710;0.8814;-0.5168;1.036
8.281000;0.1202;0.8387;-0.4370;0.953
8.286000;0.0163;0.8197;-0.3666;0.898
8.291000;-0.0691;0.7999;-0.3102;0.861
8.296000;-0.0956;0.8007;-0.2509;0.844
8.303000;-0.1254;0.7930;-0.2222;0.833
8.307000;-0.1778;0.7836;-0.2188;0.833
8.310000;-0.1572;0.7629;-0.2649;0.823
8.344000;-0.1405;0.7455;-0.3267;0.826
8.345000;-0.1059;0.7717;-0.3757;0.865
8.345000;-0.0559;0.7631;-0.4908;0.909
8.346000;-0.0240;0.8133;-0.5742;0.996
8.346000;-0.0052;0.8486;-0.6309;1.057
8.346000;0.0363;0.9147;-0.6753;1.138
8.346000;0.0649;0.9306;-0.6503;1.137
8.350000;0.1045;0.9755;-0.6374;1.170
8.355000;0.1024;1.0042;-0.5792;1.164
8.360000;0.1569;0.9903;-0.4878;1.115
8.365000;0.2249;0.9675;-0.3705;1.060
8.370000;0.3064;0.9620;-0.2701;1.045
8.374000;0.3821;0.8853;-0.1605;0.977
8.379000;0.4499;0.8665;-0.0608;0.978
8.386000;0.5336;0.8340;0.0434;0.991
8.389000;0.5761;0.8332;0.1950;1.032
8.394000;0.5584;0.8331;0.3892;1.076
8.402000;0.5691;0.8646;0.5949;1.194
8.407000;0.6182;0.8895;0.8383;1.370
8.410000;0.6462;0.8693;1.0023;1.476
8.422000;0.6704;0.8710;1.1252;1.573
8.423000;0.6512;0.8608;1.2574;1.657
8.423000;0.5705;0.8482;1.3175;1.668
8.447000;0.4458;0.8234;1.2435;1.557
8.448000;0.3661;0.8628;1.2029;1.525
8.448000;0.2051;0.8138;1.2839;1.534
8.448000;0.0581;0.7815;1.0993;1.350
8.448000;-0.0153;0.7423;0.9934;1.240
8.454000;-0.0930;0.6463;0.9470;1.150
8.459000;-0.1282;0.5630;0.8454;1.024
8.463000;-0.1127;0.4276;0.7795;0.896
8.468000;-0.0373;0.3387;0.7135;0.791
8.473000;0.0752;0.2409;0.6283;0.677
8.477000;0.2413;0.1490;0.5692;0.636
8.483000;0.4336;0.0869;0.4811;0.654
8.487000;0.6134;0.0449;0.3762;0.721
8.492000;0.7945;-0.0530;0.3092;0.854
8.496000;0.9189;-0.1368;0.2607;0.965
8.503000;0.9695;-0.1774;0.2806;1.025
8.506000;0.9174;-0.2124;0.3829;1.017
8.512000;0.8327;-0.1915;0.5793;1.032
8.520000;0.7281;-0.1642;0.8717;1.148
8.523000;0.5551;-0.2176;1.1554;1.300
8.526000;0.3851;-0.3090;1.4065;1.491
8.531000;0.2272;-0.4467;1.5754;1.653
8.560000;-0.0010;-0.6287;1.6671;1.782
8.561000;-0.2388;-0.8536;1.6893;1.908
8.561000;-0.4695;-1.1073;1.6686;2.057
8.561000;-0.7152;-1.3259;1.5838;2.186
8.562000;-0.8643;-1.5573;1.4971;2.327
8.562000;-0.9946;-1.7514;1.3442;2.421
8.565000;-1.0974;-1.8988;1.1707;2.486
8.571000;-1.1671;-1.9524;0.9673;2.472
8.575000;-1.1964;-1.9545;0.8149;2.432
8.580000;-1.1676;-1.9154;0.6659;2.340
8.584000;-1.0572;-1.7681;0.5419;2.130
8.589000;-0.8495;-1.5510;0.4476;1.824
8.594000;-0.5784;-1.3046;0.3518;1.470
8.603000;-0.2849;-1.0530;0.3094;1.134
8.604000;-0.0266;-0.8222;0.2629;0.864
8.609000;0.2947;-0.6481;0.2101;0.742
8.614000;0.5887;-0.4708;0.1985;0.780
8.644000;0.8511;-0.4168;0.1302;0.957
8.644000;1.0536;-0.3926;0.1318;1.132
8.645000;1.1754;-0.3597;0.0907;1.233
8.645000;1.2314;-0.4064;0.0739;1.299
8.645000;1.2393;-0.4653;0.0620;1.325
8.645000;1.1734;-0.5553;0.0479;1.299
8.648000;1.0824;-0.6861;-0.0116;1.282
8.655000;0.9500;-0.7903;-0.0734;1.238
8.659000;0.8270;-0.9207;-0.1615;1.248
8.663000;0.6682;-1.0340;-0.2210;1.251
8.670000;0.5451;-1.1231;-0.3164;1.288
8.673000;0.4388;-1.2332;-0.4334;1.379
8.678000;0.3323;-1.3069;-0.5482;1.456
8.683000;0.2997;-1.3630;-0.6751;1.550
8.687000;0.2525;-1.3708;-0.7686;1.592
8.692000;0.2404;-1.3995;-0.9197;1.692
8.697000;0.2372;-1.4011;-1.0065;1.741
8.704000;0.2687;-1.3613;-1.0504;1.740
8.707000;0.3156;-1.2919;-1.1521;1.760
8.712000;0.3366;-1.2195;-1.1679;1.722
8.718000;0.3434;-1.1273;-1.1887;1.674
8.722000;0.3619;-0.9917;-1.2169;1.611
8.761000;0.3894;-0.8701;-1.1567;1.499
8.761000;0.4041;-0.7891;-1.1373;1.442
8.762000;0.4272;-0.6892;-1.0915;1.360
8.762000;0.4180;-0.5801;-1.0289;1.253
8.762000;0.4125;-0.4929;-0.9663;1.161
8.763000;0.3295;-0.3971;-0.9321;1.065
8.763000;0.2581;-0.2948;-0.8737;0.958
8.763000;0.1960;-0.2152;-0.8604;0.908
8.767000;0.1361;-0.1583;-0.8419;0.867
8.771000;0.1075;-0.1573;-0.8900;0.910
8.775000;0.0118;-0.1165;-0.9616;0.969
8.780000;-0.0410;-0.0999;-1.0163;1.022
8.785000;-0.1491;-0.0785;-1.0470;1.060
8.790000;-0.2413;-0.0470;-1.0587;1.087
8.795000;-0.3653;0.0017;-1.0205;1.084
8.802000;-0.4496;0.0393;-0.9348;1.038
8.808000;-0.5301;0.0610;-0.8305;0.987
8.811000;-0.6115;0.0977;-0.7217;0.951
8.814000;-0.6435;0.1424;-0.6278;0.910
8.844000;-0.7167;0.1422;-0.5317;0.904
8.845000;-0.7378;0.1829;-0.3905;0.855
8.845000;-0.7974;0.2117;-0.2543;0.863
8.845000;-0.8073;0.2501;-0.1397;0.857
8.846000;-0.8391;0.2618;-0.0108;0.879
8.846000;-0.8381;0.3115;0.0416;0.895
8.849000;-0.8258;0.3295;0.1132;0.896
8.854000;-0.7951;0.3758;0.1873;0.899
8.859000;-0.7720;0.4622;0.3094;0.951
8.864000;-0.7518;0.5024;0.3813;0.981
8.868000;-0.7531;0.6016;0.4630;1.069
8.873000;-0.7445;0.7021;0.5426;1.158
8.879000;-0.7376;0.8039;0.5865;1.239
8.885000;-0.7199;0.8902;0.5926;1.289
8.889000;-0.6933;0.9632;0.5680;1.316
8.894000;-0.6627;1.0159;0.5510;1.332
8.899000;-0.6230;1.0602;0.4962;1.326
8.907000;-0.5889;1.0866;0.4108;1.302
8.909000;-0.6034;1.0931;0.2898;1.282
8.913000;-0.6235;1.1588;0.1812;1.328
8.919000;-0.6111;1.1736;0.0323;1.324
8.922000;-0.6095;1.2095;-0.0613;1.356
8.964000;-0.6071;1.1900;-0.1690;1.347
8.965000;-0.5801;1.1892;-0.2692;1.350
8.965000;-0.5316;1.2023;-0.3859;1.370
8.965000;-0.5144;1.2101;-0.4591;1.393
8.966000;-0.4429;1.2272;-0.5465;1.415
8.966000;-0.3726;1.2344;-0.5595;1.406
8.966000;-0.3156;1.2749;-0.5103;1.409
8.967000;-0.2482;1.2768;-0.4705;1.383
8.967000;-0.2228;1.3095;-0.4021;1.388
8.971000;-0.2559;1.3106;-0.3262;1.375
8.976000;-0.2898;1.3013;-0.2669;1.360
8.981000;-0.3358;1.2718;-0.2095;1.332
8.986000;-0.3963;1.2124;-0.1924;1.290
8.991000;-0.4379;1.1233;-0.2273;1.227
8.996000;-0.4867;1.0501;-0.3216;1.201
9.001000;-0.5312;0.9591;-0.4128;1.171
9.006000;-0.5783;0.8822;-0.5707;1.199
9.010000;-0.5929;0.8194;-0.6398;1.197
9.019000;-0.5728;0.7880;-0.7255;1.215
9.020000;-0.5045;0.7497;-0.7204;1.156
9.025000;-0.4435;0.7384;-0.7203;1.123
9.030000;-0.3662;0.7518;-0.6989;1.090
9.057000;-0.2345;0.7588;-0.5774;0.982
9.058000;-0.0611;0.7303;-0.4347;0.852
9.058000;0.1752;0.7218;-0.2326;0.778
9.058000;0.4666;0.6755;-0.0165;0.821
9.058000;0.7601;0.6035;0.2615;1.005
9.062000;1.0595;0.5060;0.6036;1.320
9.064000;1.3173;0.4790;0.9977;1.721
9.070000;1.5338;0.4555;1.4247;2.142
9.074000;1.6677;0.4427;1.8965;2.564
9.079000;1.7228;0.4332;2.3677;2.960
9.084000;1.6705;0.3811;2.8169;3.297
9.089000;1.5529;0.3173;3.1701;3.544
9.093000;1.3964;0.2940;3.3986;3.686
9.099000;1.1466;0.0764;3.8566;4.024
9.106000;0.9173;-0.0626;3.7261;3.838
9.109000;0.6913;-0.2455;3.7297;3.801
9.113000;0.4282;-0.4024;3.6664;3.713
9.121000;0.2373;-0.5741;3.4668;3.522
9.123000;0.1034;-0.6882;3.2552;3.329
9.132000;-0.0176;-0.8378;2.9982;3.113
9.133000;-0.0334;-0.8649;2.7817;2.913
9.173000;0.0382;-0.8742;2.5554;2.701
9.173000;0.1299;-0.8296;2.3263;2.473
9.174000;0.2868;-0.7192;2.1638;2.298
9.174000;0.4253;-0.5454;2.0199;2.135
9.175000;0.6535;-0.3775;1.9016;2.046
9.175000;0.9102;-0.1944;1.7852;2.013
9.175000;1.1796;-0.0610;1.6540;2.032
9.176000;1.4408;-0.0208;1.4746;2.062
9.177000;1.6342;-0.0451;1.2999;2.089
9.182000;1.8148;-0.1290;1.0844;2.118
9.190000;1.8486;-0.2010;0.8522;2.046
9.192000;1.8042;-0.3041;0.6106;1.929
9.197000;1.6377;-0.3710;0.3977;1.726
9.204000;1.4076;-0.4709;0.2447;1.504
9.206000;1.1514;-0.5201;0.1491;1.272
9.212000;0.8935;-0.6117;0.1492;1.093
9.216000;0.6355;-0.7049;0.1803;0.966
9.245000;0.4526;-0.8382;0.2688;0.990
9.245000;0.2706;-0.9683;0.3693;1.071
9.246000;0.0849;-1.0527;0.4531;1.149
9.246000;-0.0730;-1.1490;0.5155;1.261
9.246000;-0.1618;-1.2284;0.5613;1.360
9.246000;-0.2406;-1.2957;0.6382;1.464
9.251000;-0.2946;-1.3866;0.6624;1.565
9.256000;-0.3594;-1.4314;0.7534;1.657
9.260000;-0.4058;-1.4969;0.8081;1.749
9.265000;-0.4096;-1.4870;0.8479;1.760
9.272000;-0.4352;-1.5113;0.9013;1.813
9.275000;-0.4605;-1.5125;0.9587;1.849
9.280000;-0.5376;-1.4910;1.0250;1.888
9.285000;-0.6344;-1.4923;1.0597;1.937
9.290000;-0.7529;-1.5095;1.0986;2.013
9.294000;-0.9209;-1.5046;1.0868;2.072
9.300000;-1.0999;-1.4975;1.0869;2.153
9.308000;-1.2900;-1.5126;0.9986;2.225
9.309000;-1.4721;-1.5338;0.9110;2.313
9.314000;-1.6301;-1.5517;0.7331;2.367
9.320000;-1.7289;-1.5621;0.5108;2.385
9.324000;-1.7881;-1.5293;0.2277;2.364
9.368000;-1.8183;-1.5135;-0.0755;2.367
9.368000;-1.7941;-1.4741;-0.3771;2.352
9.369000;-1.7258;-1.3969;-0.6938;2.326
9.369000;-1.6166;-1.2867;-1.0208;2.305
9.369000;-1.4815;-1.1935;-1.2697;2.287
9.370000;-1.3307;-1.0528;-1.4716;2.246
9.370000;-1.1671;-0.9096;-1.6411;2.210
9.370000;-0.9764;-0.7473;-1.8020;2.182
9.371000;-0.8066;-0.6059;-1.9595;2.204
9.373000;-0.6141;-0.4831;-2.0705;2.213
9.378000;-0.4919;-0.3304;-2.1017;2.184
9.383000;-0.3413;-0.2005;-2.1969;2.232
9.388000;-0.2047;-0.0879;-2.2604;2.271
9.393000;-0.1336;0.0334;-2.2996;2.304
9.397000;-0.0578;0.1281;-2.3744;2.379
9.405000;-0.0195;0.2202;-2.4824;2.492
9.407000;0.0683;0.2096;-2.5761;2.585
9.412000;0.1197;0.2017;-2.7152;2.725
9.417000;0.1854;0.2327;-2.8449;2.860
9.449000;0.2295;0.2046;-2.9868;3.003
9.450000;0.2188;0.2138;-3.1293;3.144
9.451000;0.2176;0.1957;-3.2508;3.264
9.451000;0.1754;0.1821;-3.3207;3.330
9.452000;0.1205;0.2040;-3.3867;3.395
9.452000;0.0862;0.2020;-3.3702;3.377
9.453000;0.0507;0.2288;-3.3334;3.342
9.456000;0.0378;0.1792;-3.2382;3.243
9.464000;0.0233;0.1251;-3.1061;3.109
9.466000;-0.0243;0.0758;-2.8893;2.890
9.473000;-0.0315;-0.0456;-2.6689;2.670
9.476000;-0.0491;-0.0982;-2.4209;2.423
9.481000;-0.1035;-0.1208;-2.1570;2.163
9.487000;-0.1613;-0.1284;-1.8769;1.888
9.491000;-0.2293;-0.1167;-1.6689;1.689
9.496000;-0.2905;-0.0933;-1.4921;1.523
9.501000;-0.3229;-0.0443;-1.3296;1.369
9.506000;-0.2762;-0.0032;-1.2123;1.243
9.510000;-0.3127;0.0514;-1.1283;1.172
9.515000;-0.2744;0.1124;-1.1326;1.171
9.555000;-0.2302;0.2016;-1.1725;1.212
9.555000;-0.2063;0.2358;-1.2268;1.266
9.556000;-0.1788;0.2751;-1.3028;1.343
9.556000;-0.1475;0.3607;-1.4031;1.456
9.556000;-0.1435;0.3972;-1.4394;1.500
9.556000;-0.1335;0.5071;-1.4287;1.522
9.557000;-0.1222;0.6114;-1.3830;1.517
9.557000;-0.1245;0.6671;-1.2761;1.445
9.559000;-0.1018;0.7269;-1.1702;1.381
9.564000;-0.1144;0.7522;-1.0387;1.288
9.569000;-0.0999;0.7642;-0.8959;1.182
9.574000;-0.1187;0.7743;-0.7559;1.089
9.579000;-0.1614;0.7658;-0.6091;0.992
9.584000;-0.1547;0.7835;-0.4145;0.900
9.589000;-0.1828;0.7913;-0.2415;0.847
9.593000;-0.1697;0.7794;-0.0850;0.802
9.599000;-0.1706;0.7687;0.0504;0.789
9.605000;-0.1643;0.7425;0.2030;0.787
9.609000;-0.1723;0.7460;0.3465;0.840
9.614000;-0.1565;0.7118;0.4670;0.866
9.618000;-0.1143;0.7093;0.5642;0.913
9.653000;-0.0717;0.6620;0.6550;0.934
9.654000;-0.0047;0.6343;0.7012;0.946
9.654000;0.0583;0.5952;0.7315;0.945
9.654000;0.1270;0.5975;0.7458;0.964
9.655000;0.2042;0.5889;0.7465;0.972
9.655000;0.2903;0.5549;0.7191;0.954
9.655000;0.3687;0.6107;0.6589;0.971
9.657000;0.4731;0.6320;0.5872;0.984
9.662000;0.5609;0.6698;0.5181;1.016
9.667000;0.6201;0.7097;0.4564;1.047
9.671000;0.6916;0.7331;0.4352;1.098
9.677000;0.7157;0.7785;0.4282;1.141
9.682000;0.7281;0.8080;0.4136;1.164
9.686000;0.7123;0.8575;0.4798;1.214
9.694000;0.6876;0.9508;0.5240;1.285
9.696000;0.6182;1.0089;0.6109;1.332
9.701000;0.5757;1.0554;0.6783;1.380
9.706000;0.5505;1.0976;0.7788;1.454
9.711000;0.5425;1.1160;0.8911;1.528
9.715000;0.5370;1.1701;0.9841;1.620
9.752000;0.5151;1.1808;1.0366;1.653
9.753000;0.4887;1.2004;1.0581;1.673
9.753000;0.4939;1.2071;1.0849;1.696
9.753000;0.4782;1.2151;1.0500;1.676
9.754000;0.4539;1.2168;1.0038;1.641
9.754000;0.3731;1.2055;0.9701;1.592
9.754000;0.2218;1.2147;0.8796;1.516
9.755000;0.0790;1.2371;0.7634;1.456
9.760000;-0.0937;1.1846;0.7385;1.399
9.765000;-0.2196;1.1123;0.4009;1.203
9.771000;-0.3376;1.0254;0.2526;1.109
9.775000;-0.4289;0.9125;0.2097;1.030
9.780000;-0.5110;0.7906;0.0160;0.941
9.784000;-0.5986;0.6696;-0.0845;0.902
9.790000;-0.6782;0.5980;-0.1544;0.917
9.794000;-0.7499;0.5135;-0.1818;0.927
9.800000;-0.7522;0.4691;-0.1765;0.904
9.805000;-0.7615;0.4339;-0.1912;0.897
9.809000;-0.6877;0.3699;-0.1065;0.788
9.814000;-0.5884;0.2532;0.0155;0.641
9.822000;-0.3800;0.1487;0.1170;0.424
9.825000;-0.2301;0.0399;0.2196;0.321
9.829000;-0.0522;-0.0225;0.3948;0.399
9.833000;0.1324;-0.0316;0.6879;0.701
9.870000;0.2937;-0.0254;0.9935;1.036
9.871000;0.3537;-0.0330;1.2808;1.329
9.872000;0.3544;-0.0287;1.6168;1.655
9.872000;0.2967;-0.0655;1.9397;1.963
9.872000;0.1536;-0.1376;2.2308;2.240
9.872000;0.0306;-0.2289;2.4283;2.439
9.873000;-0.1168;-0.3621;2.5210;2.550
9.873000;-0.3148;-0.5139;2.4661;2.539
9.877000;-0.5039;-0.6757;2.3671;2.513
9.882000;-0.6466;-0.8688;2.1810;2.435
9.890000;-0.7850;-0.9738;1.9174;2.289
9.892000;-0.9106;-0.9930;1.5838;2.079
9.897000;-0.9961;-1.0313;1.3042;1.938
9.902000;-0.9901;-0.9423;1.0570;1.728
9.908000;-0.9580;-0.8190;0.8730;1.533
9.912000;-0.8548;-0.6466;0.7138;1.288
9.916000;-0.7286;-0.4632;0.6198;1.063
9.944000;-0.5717;-0.3118;0.4714;0.804
9.944000;-0.4005;-0.1754;0.3402;0.554
9.944000;-0.2455;-0.0898;0.2287;0.347
9.945000;-0.0752;-0.0380;0.1366;0.161
9.945000;0.0531;-0.0052;0.0256;0.059
9.947000;0.1066;-0.0102;-0.0783;0.133
9.951000;0.1809;-0.0335;-0.1393;0.231
9.958000;0.1857;-0.0843;-0.2269;0.305
9.961000;0.1811;-0.1768;-0.2553;0.359
9.966000;0.1272;-0.3009;-0.2797;0.430
9.971000;0.0936;-0.4471;-0.2450;0.518
9.976000;0.0735;-0.6272;-0.1850;0.658
9.981000;0.0118;-0.7697;-0.1258;0.780
9.985000;-0.0695;-0.8940;-0.0506;0.898
9.990000;-0.1040;-0.9861;0.0526;0.993
9.995000;-0.1822;-1.0728;0.0694;1.090
10.000000;-0.1943;-1.1424;0.1241;1.165
10.007000;-0.1858;-1.1932;0.1048;1.212
10.010000;-0.1305;-1.2470;0.0833;1.257
10.014000;-0.0953;-1.2871;-0.0097;1.291
10.061000;-0.0493;-1.2946;-0.1428;1.303
10.061000;-0.0042;-1.3010;-0.2945;1.334
10.061000;0.1231;-1.3300;-0.4839;1.421
10.062000;0.2084;-1.2929;-0.6679;1.470
10.062000;0.3183;-1.2637;-0.8443;1.553
10.062000;0.4189;-1.1968;-1.0180;1.626
10.063000;0.4623;-1.1109;-1.1173;1.642
10.063000;0.4844;-1.0276;-1.1950;1.649
10.063000;0.5114;-0.8989;-1.2535;1.625
10.064000;0.5002;-0.8038;-1.3048;1.612
10.068000;0.5012;-0.7564;-1.2916;1.578
10.074000;0.4499;-0.7019;-1.2665;1.516
10.079000;0.3894;-0.6712;-1.1913;1.422
10.084000;0.2860;-0.6287;-1.1066;1.304
10.088000;0.1493;-0.6461;-1.0435;1.236
10.093000;-0.0229;-0.6635;-0.9398;1.151
10.098000;-0.2308;-0.7001;-0.8576;1.131
10.102000;-0.3835;-0.7565;-0.8112;1.174
10.112000;-0.5625;-0.8013;-0.7455;1.231
10.113000;-0.7225;-0.8181;-0.6866;1.290
10.118000;-0.8589;-0.8381;-0.6801;1.379
10.148000;-0.9982;-0.8612;-0.6947;1.490
10.149000;-1.0832;-0.8635;-0.6874;1.546
10.149000;-1.1453;-0.8189;-0.7227;1.583
10.149000;-1.1486;-0.8110;-0.7480;1.593
10.150000;-1.1152;-0.7346;-0.7728;1.543
10.150000;-1.0402;-0.6782;-0.7995;1.477
10.158000;-0.9363;-0.5675;-0.8234;1.370
10.159000;-0.8318;-0.4697;-0.8372;1.270
10.162000;-0.7173;-0.3509;-0.9080;1.209
10.167000;-0.5806;-0.2257;-0.9211;1.112
10.172000;-0.4689;-0.0985;-0.9960;1.105
10.176000;-0.3607;-0.0147;-1.0922;1.150
10.182000;-0.3222;0.0952;-1.1666;1.214
10.187000;-0.2646;0.2030;-1.2364;1.281
10.191000;-0.2476;0.3088;-1.2967;1.356
10.196000;-0.2685;0.3793;-1.3811;1.457
10.201000;-0.2935;0.4891;-1.4325;1.542
10.207000;-0.2890;0.5692;-1.4320;1.568
10.218000;-0.2976;0.6745;-1.3269;1.518
10.218000;-0.3266;0.7713;-1.2322;1.490
10.256000;-0.3682;0.8143;-1.1144;1.429
10.257000;-0.3987;0.8608;-1.0212;1.394
10.258000;-0.3990;0.8577;-0.9215;1.321
10.258000;-0.3596;0.8097;-0.8508;1.228
10.258000;-0.3477;0.7860;-0.8139;1.184
10.258000;-0.3564;0.7673;-0.7391;1.123
10.259000;-0.3598;0.7436;-0.6427;1.047
10.259000;-0.3704;0.7533;-0.5440;1.000
10.260000;-0.3743;0.7766;-0.4284;0.963
10.264000;-0.3909;0.8158;-0.3890;0.985
10.270000;-0.4247;0.8947;-0.3588;1.053
10.275000;-0.4685;0.9343;-0.3688;1.108
10.279000;-0.5410;0.9941;-0.3735;1.192
10.285000;-0.6041;1.0386;-0.3945;1.265
10.289000;-0.6607;1.0223;-0.4605;1.301
10.295000;-0.7446;1.0176;-0.5523;1.377
10.299000;-0.8108;1.0007;-0.5817;1.413
10.305000;-0.9174;0.9646;-0.5104;1.426
10.313000;-0.9789;0.9360;-0.4582;1.430
10.314000;-1.1368;0.8863;-0.2815;1.469
10.319000;-1.2766;0.8133;-0.0452;1.514
10.325000;-1.3749;0.6762;0.1434;1.539
10.330000;-1.4651;0.5532;0.4016;1.617
10.333000;-1.4857;0.4057;0.6699;1.679
10.382000;-1.4413;0.3098;0.8817;1.718
10.384000;-1.3152;0.2289;1.0587;1.704
10.384000;-1.2573;0.1578;1.1557;1.715
10.384000;-1.1594;0.1467;1.2518;1.712
10.384000;-1.0127;0.1666;1.3109;1.665
10.385000;-0.8554;0.1985;1.2638;1.539
10.385000;-0.6765;0.2576;1.2033;1.404
10.385000;-0.5046;0.3369;1.1221;1.276
10.385000;-0.3602;0.4612;0.9743;1.137
10.386000;-0.2291;0.5643;0.8456;1.042
10.387000;-0.1746;0.6735;0.7045;0.990
10.393000;-0.1113;0.8202;0.6367;1.044
10.397000;-0.1055;0.9335;0.6442;1.139
10.402000;-0.0983;1.0373;0.7485;1.283
10.408000;-0.1059;1.1315;0.9421;1.476
10.412000;-0.0765;1.1779;1.0985;1.612
10.416000;0.0334;1.1782;1.2298;1.703
10.450000;0.2500;1.1466;1.3458;1.786
10.451000;0.4428;1.0995;1.3698;1.811
10.451000;0.6525;1.0603;1.5101;1.957
10.451000;0.8501;0.9217;1.7689;2.168
10.452000;1.0118;0.8269;1.7303;2.168
10.452000;1.1614;0.7114;1.8344;2.285
10.452000;1.2264;0.6305;1.9066;2.353
10.457000;1.2327;0.5531;1.9158;2.344
10.461000;1.1925;0.4601;1.9316;2.316
10.466000;1.0864;0.3684;1.9156;2.233
10.470000;0.9861;0.2638;1.9203;2.175
10.475000;0.8341;0.1610;1.9409;2.119
10.481000;0.7595;0.0479;2.0109;2.150
10.485000;0.7213;-0.0918;2.1014;2.224
10.490000;0.7100;-0.2154;2.1313;2.257
10.495000;0.6897;-0.3350;2.1676;2.299
10.500000;0.7374;-0.3909;2.1912;2.345
10.512000;0.7484;-0.4409;2.2259;2.389
10.513000;0.7634;-0.4493;2.3078;2.472
10.515000;0.7278;-0.4379;2.4009;2.547
10.520000;0.6917;-0.4431;2.4934;2.625
10.524000;0.7105;-0.4750;2.5665;2.705
10.529000;0.7317;-0.4935;2.6107;2.756
10.534000;0.7151;-0.5515;2.6023;2.755
10.574000;0.6609;-0.6041;2.5439;2.697
10.575000;0.6271;-0.6993;2.4331;2.608
10.576000;0.5321;-0.7515;2.3061;2.483
10.576000;0.4506;-0.8060;2.1293;2.321
10.576000;0.3722;-0.8606;1.9292;2.145
10.576000;0.3017;-0.8768;1.7155;1.950
10.577000;0.2309;-0.8999;1.4476;1.720
10.577000;0.1935;-0.8818;1.1924;1.496
10.578000;0.1765;-0.8748;0.8495;1.232
10.583000;0.1937;-0.8666;0.6199;1.083
10.588000;0.2111;-0.8857;0.3552;0.977
10.594000;0.2716;-0.8697;0.0888;0.915
10.597000;0.3216;-0.8900;-0.1744;0.962
10.603000;0.4036;-0.8629;-0.3579;1.018
10.608000;0.4649;-0.7998;-0.5480;1.075
10.613000;0.5078;-0.7489;-0.7064;1.148
10.618000;0.5437;-0.7047;-0.8380;1.223
10.625000;0.5012;-0.6581;-0.9477;1.258
10.627000;0.5139;-0.6350;-1.0498;1.330
10.632000;0.4672;-0.6309;-1.1443;1.388
10.637000;0.4040;-0.6047;-1.1764;1.383
10.671000;0.3559;-0.6309;-1.2131;1.413
10.671000;0.3178;-0.6207;-1.2615;1.441
10.671000;0.2068;-0.6486;-1.2930;1.461
10.672000;0.1617;-0.6546;-1.3076;1.471
10.672000;0.1376;-0.7178;-1.3605;1.544
10.673000;0.1368;-0.7022;-1.3725;1.548
10.673000;0.0834;-0.7344;-1.4370;1.616
10.676000;0.1091;-0.7310;-1.4536;1.631
10.680000;0.0969;-0.7470;-1.5035;1.682
10.686000;0.0751;-0.7200;-1.5294;1.692
10.691000;0.0202;-0.7100;-1.5601;1.714
10.695000;-0.0184;-0.6549;-1.6096;1.738
10.700000;-0.0409;-0.6600;-1.5775;1.710
10.705000;-0.0024;-0.6081;-1.5810;1.694
10.710000;0.0631;-0.5663;-1.5602;1.661
10.715000;0.1863;-0.5611;-1.5485;1.658
10.719000;0.2787;-0.4874;-1.5386;1.638
10.757000;0.3761;-0.4576;-1.5018;1.614
10.758000;0.4645;-0.3857;-1.4646;1.584
10.758000;0.5943;-0.3147;-1.4149;1.567
10.758000;0.6581;-0.2352;-1.3671;1.535
10.759000;0.7064;-0.1734;-1.3452;1.529
10.759000;0.7420;-0.1174;-1.3563;1.550
10.759000;0.7583;-0.0883;-1.3623;1.562
10.761000;0.7248;-0.1078;-1.4183;1.596
10.763000;0.7088;-0.1347;-1.4239;1.596
10.768000;0.6150;-0.1475;-1.4607;1.592
10.774000;0.5319;-0.1265;-1.4618;1.561
10.778000;0.4048;-0.1288;-1.4395;1.501
10.784000;0.2938;-0.1375;-1.4392;1.475
10.788000;0.1895;-0.1832;-1.3941;1.419
10.793000;0.0825;-0.2609;-1.3882;1.415
10.799000;0.0204;-0.3492;-1.3401;1.385
10.803000;-0.0493;-0.3837;-1.2879;1.345
10.809000;-0.1724;-0.4551;-1.1551;1.253
10.812000;-0.3230;-0.4728;-1.0112;1.162
10.818000;-0.4295;-0.4038;-0.8009;0.994
10.861000;-0.5188;-0.3990;-0.6149;0.898
10.862000;-0.5720;-0.3203;-0.4912;0.819
10.862000;-0.5773;-0.2757;-0.4272;0.769
10.863000;-0.5108;-0.2442;-0.3891;0.687
10.863000;-0.4085;-0.1974;-0.4174;0.616
10.863000;-0.2847;-0.1448;-0.4833;0.579
10.864000;-0.1304;-0.0484;-0.5413;0.559
10.864000;-0.0098;0.0656;-0.6584;0.662
10.864000;0.1342;0.2284;-0.7652;0.810
10.866000;0.2661;0.3709;-0.8954;1.005
10.871000;0.4336;0.5007;-1.0131;1.210
10.879000;0.6083;0.6444;-1.1043;1.416
10.881000;0.7205;0.7137;-1.1857;1.560
10.886000;0.8063;0.7877;-1.2718;1.699
10.892000;0.8560;0.8407;-1.3269;1.789
10.896000;0.8456;0.9205;-1.3223;1.820
10.901000;0.8036;0.9960;-1.3203;1.839
10.906000;0.7564;1.0360;-1.2611;1.799
10.930000;0.6773;1.0671;-1.1663;1.720
10.930000;0.6497;1.1033;-1.0071;1.629
10.931000;0.5372;1.1253;-0.9006;1.538
10.931000;0.4860;1.1497;-0.7654;1.464
10.931000;0.3837;1.1523;-0.6780;1.391
10.935000;0.3311;1.1355;-0.5523;1.305
10.941000;0.2924;1.1399;-0.4839;1.272
10.945000;0.2654;1.1704;-0.4441;1.280
10.950000;0.2525;1.1242;-0.4162;1.225
10.955000;0.2679;1.1332;-0.3812;1.225
10.960000;0.2702;1.1378;-0.3152;1.211
10.964000;0.2476;1.1741;-0.2041;1.217
10.969000;0.2669;1.2063;-0.0431;1.236
10.974000;0.3015;1.2296;0.1605;1.276
10.979000;0.3300;1.2416;0.3327;1.327
10.984000;0.4264;1.2541;0.5212;1.423
10.989000;0.4814;1.2789;0.6856;1.529
10.994000;0.4929;1.2727;0.8425;1.604
10.999000;0.4713;1.2928;0.9635;1.680
11.004000;0.4673;1.3172;1.0532;1.750
11.010000;0.4267;1.3558;1.1500;1.828
11.014000;0.3810;1.3748;1.1606;1.839
11.019000;0.3163;1.3912;1.1853;1.855
11.024000;0.2113;1.4072;1.1789;1.848
11.030000;0.1471;1.4133;1.1628;1.836
11.035000;0.1192;1.4309;1.0966;1.807
11.038000;0.1007;1.4410;1.0374;1.778
11.085000;0.1276;1.4555;0.9736;1.756
11.087000;0.1370;1.4622;0.9196;1.733
11.087000;0.1478;1.4754;0.7942;1.682
11.087000;0.1500;1.5000;0.7145;1.668
11.087000;0.1366;1.5406;0.6496;1.677
11.088000;0.1116;1.5637;0.5970;1.677
11.089000;0.1228;1.5692;0.5330;1.662
11.089000;0.0811;1.5883;0.4814;1.662
11.090000;0.0394;1.5923;0.4064;1.644
11.090000;-0.0362;1.5790;0.3295;1.613
11.092000;-0.1237;1.5887;0.2198;1.609
11.097000;-0.2257;1.5025;0.3756;1.565
11.101000;-0.2417;1.4831;0.0511;1.504
11.110000;-0.2604;1.4331;0.0233;1.457
11.111000;-0.2458;1.3021;0.0767;1.327
11.116000;-0.1982;1.1937;-0.0160;1.210
11.121000;-0.1750;1.0220;-0.0374;1.038
11.158000;-0.1669;0.8757;-0.0545;0.893
11.158000;-0.1903;0.7098;-0.0914;0.741
11.159000;-0.1959;0.5581;-0.1053;0.601
11.159000;-0.1860;0.3852;-0.0844;0.436
11.159000;-0.1950;0.1961;-0.0337;0.279
11.159000;-0.2470;0.0295;0.0634;0.257
11.159000;-0.2707;-0.1215;0.2138;0.366
11.160000;-0.2834;-0.3044;0.4723;0.629
11.165000;-0.3548;-0.4358;0.7911;0.970
11.170000;-0.4084;-0.5636;1.1392;1.335
11.176000;-0.4194;-0.6360;1.4714;1.657
11.180000;-0.4681;-0.7279;1.8071;2.004
11.185000;-0.4480;-0.8139;2.1373;2.330
11.189000;-0.4583;-0.9163;2.3690;2.581
11.195000;-0.4211;-1.0147;2.4456;2.681
11.200000;-0.4362;-1.1358;2.4675;2.751
11.205000;-0.4167;-1.3375;2.4209;2.797
11.210000;-0.4249;-1.4861;2.2628;2.740
11.214000;-0.4946;-1.5959;2.0269;2.627
11.219000;-0.5162;-1.6784;1.7608;2.487
11.258000;-0.5863;-1.7242;1.4574;2.332
11.259000;-0.5757;-1.7016;1.1716;2.145
11.259000;-0.5759;-1.6798;0.9056;1.993
11.260000;-0.6139;-1.6035;0.7141;1.860
11.260000;-0.6278;-1.5538;0.4681;1.740
11.260000;-0.6512;-1.4637;0.2727;1.625
11.261000;-0.6653;-1.4454;0.0393;1.592
11.261000;-0.6534;-1.3671;-0.1437;1.522
11.263000;-0.6417;-1.3318;-0.3384;1.517
11.268000;-0.6589;-1.2627;-0.4900;1.506
11.273000;-0.6571;-1.1766;-0.6057;1.477
11.278000;-0.6339;-1.1447;-0.7359;1.501
11.284000;-0.6038;-1.1005;-0.8804;1.533
11.288000;-0.5716;-1.0557;-0.9748;1.546
11.293000;-0.5162;-1.0414;-1.0526;1.568
11.298000;-0.4569;-1.0526;-1.1712;1.640
11.303000;-0.3964;-1.0891;-1.2828;1.729
11.310000;-0.3353;-1.1147;-1.2969;1.743
11.312000;-0.3244;-1.0960;-1.3065;1.736
11.317000;-0.3477;-1.0831;-1.1780;1.638
11.322000;-0.3628;-1.0665;-1.0071;1.511
11.359000;-0.4062;-1.0107;-0.7411;1.317
11.360000;-0.4567;-0.9974;-0.4134;1.172
11.360000;-0.4429;-0.9936;-0.0357;1.088
11.360000;-0.4069;-1.0435;0.2560;1.149
11.360000;-0.3341;-1.0902;0.5149;1.251
11.361000;-0.2803;-1.1417;0.6646;1.350
11.361000;-0.1969;-1.1695;0.7461;1.401
11.362000;-0.1877;-1.1789;0.7620;1.416
11.366000;-0.1685;-1.2031;0.7145;1.409
11.371000;-0.1428;-1.2155;0.5821;1.355
11.377000;-0.1292;-1.1942;0.3981;1.265
11.381000;-0.0454;-1.1362;0.2053;1.156
11.386000;-0.0344;-1.1126;-0.0660;1.115
11.390000;0.0167;-1.0794;-0.3228;1.127
11.396000;0.0459;-1.0530;-0.5653;1.196
11.401000;0.0939;-1.0085;-0.8131;1.299
11.406000;0.0574;-0.9315;-0.9945;1.364
11.412000;0.0174;-0.8623;-1.1622;1.447
11.416000;0.0044;-0.7887;-1.2614;1.488
11.420000;0.0296;-0.6966;-1.3184;1.491
11.472000;0.0783;-0.6627;-1.3114;1.471
11.473000;0.0612;-0.6107;-1.2860;1.425
11.473000;0.0927;-0.5772;-1.2274;1.359
11.473000;0.1024;-0.5147;-1.1808;1.292
11.474000;0.0973;-0.4955;-1.1152;1.224
11.474000;0.0644;-0.4410;-1.0373;1.129
11.474000;0.0010;-0.3562;-0.9902;1.052
11.475000;-0.0766;-0.2606;-0.9307;0.970
11.475000;-0.1803;-0.1923;-0.8684;0.908
11.475000;-0.2887;-0.1086;-0.8224;0.878
11.476000;-0.3946;-0.0358;-0.7639;0.861
11.479000;-0.4617;0.0356;-0.6906;0.831
11.484000;-0.5494;0.1081;-0.6407;0.851
11.489000;-0.5949;0.1552;-0.6500;0.895
11.494000;-0.6456;0.1895;-0.6232;0.917
11.498000;-0.6674;0.2300;-0.6916;0.988
11.503000;-0.6861;0.3008;-0.7597;1.067
11.532000;-0.7084;0.3449;-0.8444;1.155
11.533000;-0.7006;0.4655;-0.9290;1.253
11.534000;-0.6935;0.5485;-0.9948;1.331
11.534000;-0.6421;0.6180;-0.9749;1.321
11.534000;-0.6092;0.7083;-0.9748;1.350
11.535000;-0.5642;0.7857;-0.9037;1.324
11.538000;-0.5237;0.8458;-0.8142;1.286
11.544000;-0.4736;0.9125;-0.6826;1.234
11.547000;-0.4426;0.9756;-0.5086;1.186
11.552000;-0.3998;1.0300;-0.2993;1.145
11.557000;-0.3694;1.0775;-0.0617;1.141
11.562000;-0.3302;1.0725;0.1158;1.128
11.567000;-0.3085;1.1335;0.3318;1.221
11.573000;-0.3116;1.1646;0.4834;1.299
11.577000;-0.2631;1.1772;0.6331;1.362
11.582000;-0.2248;1.1521;0.6997;1.367
11.587000;-0.1561;1.1344;0.7265;1.356
11.593000;-0.0665;1.1145;0.7087;1.322
11.598000;-0.0040;1.0666;0.6964;1.274
11.601000;0.0557;1.0408;0.6608;1.234
11.607000;0.0838;0.9850;0.6307;1.173
11.612000;0.1331;0.9785;0.5388;1.125
11.617000;0.1460;0.9212;0.5165;1.066
11.622000;0.1656;0.9090;0.4874;1.045
11.630000;0.1777;0.8946;0.4797;1.031
11.631000;0.1297;0.8733;0.5484;1.039
11.636000;0.1148;0.8479;0.6240;1.059
11.640000;0.0971;0.8348;0.7256;1.110
11.687000;0.0674;0.7699;0.8173;1.125
11.687000;0.0567;0.7075;0.9495;1.185
11.688000;0.0032;0.6573;1.0863;1.270
11.688000;-0.0311;0.5614;1.2087;1.333
11.688000;-0.0769;0.4746;1.3239;1.409
11.688000;-0.1057;0.4276;1.3797;1.448
11.689000;-0.1437;0.3750;1.4429;1.498
11.689000;-0.1409;0.3567;1.4326;1.483
11.689000;-0.1595;0.3134;1.4250;1.468
11.689000;-0.1781;0.2783;1.4277;1.465
11.696000;-0.1563;0.2587;1.3950;1.427
11.700000;-0.1040;0.2784;1.3510;1.383
11.704000;-0.0454;0.2374;1.2859;1.308
11.712000;0.0530;0.2409;1.2262;1.251
11.714000;0.1265;0.2675;1.1502;1.188
11.718000;0.2445;0.2741;1.0532;1.115
11.724000;0.3352;0.3305;0.9900;1.096
11.755000;0.4180;0.3716;0.9297;1.085
11.756000;0.4979;0.4313;0.8436;1.070
11.756000;0.5607;0.4662;0.7603;1.053
11.757000;0.6446;0.5242;0.6440;1.051
11.758000;0.6710;0.5190;0.5475;1.010
11.758000;0.6544;0.5179;0.3893;0.921
11.758000;0.6403;0.5375;0.2461;0.871
11.767000;0.6024;0.5208;0.0006;0.796
11.768000;0.5266;0.5415;-0.1773;0.776
11.773000;0.4417;0.5116;-0.1946;0.703
11.778000;0.3306;0.4933;-0.4362;0.737
11.783000;0.2555;0.4706;-0.6251;0.823
11.787000;0.1638;0.4172;-0.7779;0.898
11.793000;0.1127;0.3411;-0.8855;0.956
11.798000;0.0301;0.2450;-0.9958;1.026
11.804000;-0.0217;0.1293;-1.0255;1.034
11.808000;-0.0430;0.0134;-1.0990;1.100
11.815000;-0.0671;-0.0639;-1.1353;1.139
11.818000;-0.0316;-0.1814;-1.1153;1.130
11.823000;0.0040;-0.2957;-1.1111;1.150
11.834000;0.0636;-0.4306;-1.0796;1.164
11.836000;0.1214;-0.5542;-0.9807;1.133
11.838000;0.1772;-0.7026;-0.8479;1.115
11.841000;0.2188;-0.8179;-0.6693;1.079
11.890000;0.1676;-0.9431;-0.4596;1.062
11.891000;0.1462;-1.0278;-0.1231;1.045
11.892000;0.0489;-1.1009;0.2659;1.134
11.892000;-0.0237;-1.1846;0.6265;1.340
11.893000;-0.0742;-1.2719;1.0257;1.636
11.893000;-0.1808;-1.3544;1.4354;1.982
11.894000;-0.2859;-1.4614;1.8247;2.355
11.894000;-0.3221;-1.5653;2.1774;2.701
11.895000;-0.3970;-1.6570;2.5129;3.036
11.895000;-0.4676;-1.7550;2.7721;3.314
11.895000;-0.4838;-1.8450;2.9624;3.523
11.901000;-0.5130;-1.9234;3.0580;3.649
11.905000;-0.4714;-1.9518;3.0805;3.677
11.913000;-0.4453;-1.9597;3.0662;3.666
11.917000;-0.3465;-1.9473;2.9410;3.544
11.920000;-0.2302;-1.8931;2.7361;3.335
11.925000;-0.1134;-1.8133;2.4538;3.053
11.955000;-0.0276;-1.7220;2.1563;2.760
11.955000;0.0416;-1.5540;1.8886;2.446
11.956000;0.0868;-1.4521;1.6123;2.172
11.956000;0.1536;-1.3197;1.3771;1.913
11.956000;0.2108;-1.1994;1.1327;1.663
11.957000;0.2656;-1.1412;0.9243;1.492
11.959000;0.3208;-1.0968;0.7374;1.360
11.966000;0.4008;-1.0729;0.5121;1.255
11.969000;0.4076;-1.0789;0.3534;1.206
11.974000;0.3897;-1.0714;0.2038;1.158
11.980000;0.3562;-1.0913;0.0155;1.148
11.984000;0.3262;-1.1358;-0.1182;1.188
11.988000;0.2615;-1.1786;-0.2262;1.228
11.994000;0.1689;-1.1957;-0.3634;1.261
11.998000;0.0648;-1.1969;-0.4173;1.269
12.003000;-0.0195;-1.1679;-0.4694;1.259
12.008000;-0.0891;-1.1570;-0.4763;1.254
12.013000;-0.1583;-1.1622;-0.5121;1.280
12.019000;-0.1917;-1.1457;-0.5143;1.270
12.024000;-0.1372;-1.1343;-0.5211;1.256
12.032000;-0.1458;-1.1169;-0.5059;1.235
12.033000;-0.1219;-1.0624;-0.5642;1.209
12.038000;-0.1039;-1.0241;-0.6097;1.196
12.043000;-0.0559;-0.8898;-0.7308;1.153
12.086000;-0.0497;-0.8083;-0.8341;1.163
12.087000;0.0083;-0.7102;-0.9840;1.214
12.087000;0.1252;-0.5980;-1.1687;1.319
12.087000;0.1889;-0.4978;-1.3665;1.467
12.088000;0.3021;-0.3975;-1.5848;1.662
12.088000;0.3861;-0.3565;-1.8117;1.886
12.088000;0.4599;-0.3096;-2.0019;2.077
12.089000;0.4708;-0.2180;-2.1702;2.231
12.089000;0.4738;-0.1388;-2.2974;2.350
12.092000;0.4333;-0.0693;-2.4866;2.525
12.098000;0.4259;-0.0328;-2.6088;2.644
12.101000;0.3656;0.0043;-2.6570;2.682
12.106000;0.3025;0.0305;-2.6075;2.625
12.114000;0.2147;0.0723;-2.4893;2.500
12.116000;0.0757;0.0940;-2.3382;2.341
12.120000;-0.0380;0.1386;-2.1209;2.126
12.125000;-0.1264;0.1413;-1.9354;1.945
12.171000;-0.1847;0.1281;-1.7074;1.722
12.172000;-0.2318;0.0915;-1.4631;1.484
12.172000;-0.2867;0.0287;-1.2812;1.313
12.172000;-0.3301;-0.0032;-1.0683;1.118
12.172000;-0.4047;-0.0453;-0.8555;0.948
12.172000;-0.4128;-0.0688;-0.6953;0.812
12.173000;-0.4141;-0.0623;-0.5707;0.708
12.173000;-0.3847;-0.0304;-0.4412;0.586
12.173000;-0.3486;0.0292;-0.3473;0.493
12.176000;-0.2982;0.0637;-0.2651;0.404
12.182000;-0.1811;0.1141;-0.2185;0.306
12.184000;-0.0325;0.1778;-0.1572;0.240
12.189000;0.1618;0.2694;-0.1651;0.355
12.194000;0.3017;0.3386;-0.1728;0.485
12.199000;0.4332;0.4504;-0.2090;0.659
12.204000;0.5421;0.5422;-0.2401;0.803
12.209000;0.6068;0.6148;-0.2665;0.904
12.214000;0.6490;0.7112;-0.3024;1.009
12.218000;0.7091;0.7910;-0.2906;1.101
12.223000;0.7275;0.8206;-0.3363;1.147
12.268000;0.7520;0.8552;-0.3413;1.189
12.268000;0.7709;0.8660;-0.3011;1.198
12.269000;0.8199;0.8599;-0.3158;1.229
12.269000;0.8107;0.8896;-0.3592;1.256
12.269000;0.7959;0.8833;-0.4120;1.258
12.269000;0.7727;0.8862;-0.4432;1.257
12.270000;0.7477;0.9104;-0.4646;1.266
12.270000;0.7278;0.9818;-0.4905;1.317
12.270000;0.7288;1.0263;-0.4612;1.341
12.274000;0.7284;1.1038;-0.4533;1.398
12.278000;0.7555;1.1785;-0.4332;1.465
12.282000;0.7478;1.2358;-0.3866;1.495
12.287000;0.7316;1.3043;-0.3087;1.527
12.292000;0.7216;1.3122;-0.2282;1.515
12.297000;0.6841;1.3268;-0.1833;1.504
12.303000;0.6386;1.3140;-0.0952;1.464
12.308000;0.6211;1.3412;-0.0904;1.481
12.315000;0.5649;1.3170;-0.0804;1.435
12.317000;0.5203;1.3186;-0.0271;1.418
12.322000;0.4779;1.3004;-0.0333;1.386
12.327000;0.4164;1.3078;-0.0656;1.374
12.380000;0.3407;1.2959;-0.0761;1.342
12.381000;0.3368;1.2837;-0.0530;1.328
12.381000;0.3161;1.2735;-0.0441;1.313
12.381000;0.3072;1.2516;-0.0592;1.290
12.381000;0.2960;1.2561;-0.0598;1.292
12.382000;0.2965;1.2629;-0.0485;1.298
12.382000;0.2735;1.2720;-0.0491;1.302
12.382000;0.2983;1.2861;-0.0664;1.322
12.383000;0.3330;1.2739;-0.0837;1.319
12.383000;0.3534;1.2716;-0.0867;1.323
12.383000;0.3881;1.2696;-0.1113;1.332
12.385000;0.3915;1.2825;-0.0716;1.343
12.391000;0.4041;1.3270;-0.0465;1.388
12.395000;0.4090;1.3435;0.0548;1.405
12.400000;0.3824;1.3126;0.1606;1.377
12.405000;0.3602;1.3135;0.2707;1.389
12.410000;0.3186;1.3195;0.4093;1.418
12.415000;0.2649;1.2659;0.5500;1.405
12.420000;0.1990;1.2289;0.6596;1.409
12.426000;0.0733;1.1724;0.8362;1.442
12.435000;-0.0095;1.1702;0.8170;1.427
12.437000;-0.1666;1.1170;1.1447;1.608
12.506000;-0.3353;1.0962;1.0495;1.554
12.507000;-0.5300;1.0696;1.0696;1.603
12.508000;-0.6665;1.0441;1.1143;1.666
12.508000;-0.8213;1.0081;1.0590;1.677
12.508000;-0.9365;0.9732;0.9734;1.665
12.508000;-1.0148;0.9305;0.8979;1.644
12.509000;-1.0612;0.9037;0.7058;1.562
12.509000;-1.0641;0.8742;0.5859;1.497
12.509000;-1.0527;0.8352;0.4232;1.409
12.509000;-1.0178;0.8087;0.2725;1.328
12.509000;-0.9697;0.8139;0.2054;1.283
12.510000;-0.8682;0.7988;0.1402;1.188
12.510000;-0.7307;0.7874;0.1031;1.079
12.511000;-0.6030;0.7205;0.0437;0.941
12.511000;-0.4281;0.6508;0.0647;0.782
12.512000;-0.2492;0.5358;0.0940;0.598
12.521000;-0.0329;0.4377;0.1722;0.472
12.523000;0.1439;0.2996;0.2847;0.438
12.531000;0.3100;0.1363;0.5125;0.614
12.532000;0.4037;0.0220;0.8101;0.905
12.537000;0.4234;-0.0961;1.1463;1.226
12.542000;0.3561;-0.2375;1.4570;1.519
12.572000;0.2579;-0.3767;1.7566;1.815
12.573000;0.0947;-0.5598;1.9335;2.015
12.573000;-0.0530;-0.7348;2.0238;2.154
12.573000;-0.3015;-0.8858;2.1117;2.310
12.573000;-0.5644;-1.0370;2.0875;2.398
12.574000;-0.8081;-1.1651;1.9107;2.379
12.576000;-0.9876;-1.3229;1.7085;2.376
12.581000;-1.0750;-1.3956;1.4330;2.271
12.586000;-1.1409;-1.4595;1.1033;2.156
12.591000;-1.1340;-1.4475;0.7959;2.004
12.596000;-1.0673;-1.3883;0.4963;1.820
12.601000;-0.9398;-1.2884;0.2352;1.612
12.606000;-0.7736;-1.1263;0.0676;1.368
12.611000;-0.6222;-0.9329;-0.0762;1.124
12.616000;-0.4117;-0.7031;-0.1962;0.838
12.621000;-0.1803;-0.5303;-0.2853;0.629
12.625000;0.0003;-0.4454;-0.3316;0.555
12.670000;0.1831;-0.3404;-0.3544;0.524
12.671000;0.3272;-0.2967;-0.3419;0.559
12.672000;0.3975;-0.2665;-0.2939;0.562
12.672000;0.4589;-0.3214;-0.2225;0.603
12.672000;0.4189;-0.4210;-0.0964;0.602
12.673000;0.3592;-0.5726;-0.0017;0.676
12.673000;0.3141;-0.7597;0.0355;0.823
12.673000;0.2001;-0.9371;0.0489;0.960
12.673000;0.1161;-1.1147;0.0433;1.122
12.674000;-0.0050;-1.2302;-0.0004;1.230
12.679000;-0.1173;-1.3415;-0.0580;1.348
12.685000;-0.1370;-1.4150;-0.1845;1.434
12.689000;-0.1236;-1.5228;-0.3057;1.558
12.694000;-0.0918;-1.6259;-0.4505;1.690
12.700000;0.0134;-1.7150;-0.6070;1.819
12.704000;0.1128;-1.7584;-0.7609;1.919
12.709000;0.2203;-1.7537;-0.8741;1.972
12.717000;0.3069;-1.7602;-0.9995;2.047
12.721000;0.4200;-1.6893;-1.0558;2.036
12.725000;0.4856;-1.6005;-1.0599;1.980
12.728000;0.5296;-1.4751;-1.0239;1.872
12.779000;0.5304;-1.3631;-0.9405;1.739
12.780000;0.4977;-1.1983;-0.8501;1.551
12.780000;0.4291;-1.0907;-0.7242;1.378
12.781000;0.3460;-0.9648;-0.5670;1.171
12.781000;0.2482;-0.9091;-0.4240;1.033
12.781000;0.2191;-0.8405;-0.2160;0.895
12.781000;0.2086;-0.7998;-0.0841;0.831
12.782000;0.1664;-0.7921;-0.0423;0.810
12.782000;0.1172;-0.7838;-0.0405;0.794
12.782000;0.0520;-0.7608;-0.0617;0.765
12.782000;-0.0596;-0.7799;-0.1253;0.792
12.788000;-0.1959;-0.7911;-0.2264;0.846
12.793000;-0.3396;-0.7698;-0.3796;0.923
12.798000;-0.4975;-0.7518;-0.5443;1.053
12.802000;-0.6576;-0.7366;-0.7205;1.222
12.807000;-0.8153;-0.6977;-0.8727;1.383
12.811000;-0.9519;-0.6730;-0.9602;1.510
12.817000;-1.0944;-0.6528;-1.0453;1.648
12.822000;-1.1984;-0.6012;-1.0635;1.711
12.827000;-1.2409;-0.5734;-1.1320;1.775
12.838000;-1.2344;-0.5169;-1.1071;1.737
12.839000;-1.1653;-0.4892;-1.0584;1.648
12.844000;-1.1133;-0.4472;-1.0192;1.574
12.897000;-1.0645;-0.4322;-0.9511;1.491
12.898000;-0.9881;-0.3725;-0.8588;1.361
12.898000;-0.8771;-0.2828;-0.8092;1.226
12.899000;-0.8008;-0.2108;-0.7258;1.101
12.899000;-0.7231;-0.0969;-0.6229;0.959
12.899000;-0.6771;-0.0200;-0.5317;0.861
12.899000;-0.6000;0.0440;-0.4688;0.763
12.900000;-0.5516;0.0830;-0.4126;0.694
12.900000;-0.5282;0.1285;-0.4088;0.680
12.900000;-0.5124;0.1781;-0.4190;0.685
12.900000;-0.5200;0.2489;-0.5127;0.772
12.901000;-0.5650;0.2887;-0.5752;0.856
12.905000;-0.6250;0.3193;-0.6450;0.953
12.909000;-0.6783;0.4105;-0.7509;1.092
12.914000;-0.7127;0.4167;-0.7976;1.148
12.919000;-0.7475;0.4292;-0.8711;1.225
12.925000;-0.7633;0.4337;-0.9285;1.278
12.933000;-0.7438;0.4471;-0.9747;1.305
12.935000;-0.7206;0.4550;-0.9834;1.301
12.940000;-0.6581;0.4933;-0.9784;1.278
12.944000;-0.6168;0.5088;-0.9239;1.222
12.988000;-0.5470;0.5494;-0.8508;1.151
12.989000;-0.4493;0.5743;-0.7662;1.058
12.989000;-0.3767;0.5999;-0.6557;0.965
12.990000;-0.3340;0.6377;-0.5694;0.918
12.990000;-0.3379;0.6902;-0.4450;0.888
12.990000;-0.3668;0.7282;-0.3254;0.878
12.990000;-0.4251;0.7685;-0.1916;0.899
12.990000;-0.4765;0.7989;-0.0721;0.933
12.991000;-0.5182;0.7787;0.0402;0.936
12.995000;-0.6098;0.7101;0.1335;0.945
12.998000;-0.6694;0.6456;0.1553;0.943
13.003000;-0.7595;0.5400;0.1391;0.942
13.008000;-0.8132;0.4437;0.1708;0.942
13.012000;-0.9118;0.3495;0.1764;0.992
13.017000;-1.0031;0.3079;0.1605;1.062
13.022000;-1.0947;0.2664;0.2426;1.152
13.027000;-1.1558;0.2657;0.3701;1.242
13.065000;-1.1724;0.2649;0.4855;1.296
13.066000;-1.1355;0.2329;0.5650;1.290
13.066000;-1.0738;0.2270;0.7021;1.303
13.066000;-0.9802;0.2398;0.8058;1.291
13.067000;-0.8663;0.2543;0.9025;1.277
13.067000;-0.7536;0.3015;1.0593;1.334
13.067000;-0.6346;0.3358;1.2020;1.400
13.067000;-0.5455;0.3713;1.2877;1.447
13.072000;-0.4281;0.4150;1.3237;1.452
13.077000;-0.3158;0.4427;1.3795;1.483
13.082000;-0.2203;0.4544;1.4025;1.491
13.087000;-0.1537;0.4976;1.3714;1.467
13.091000;-0.0870;0.5270;1.2956;1.401
13.096000;-0.0418;0.4831;1.3522;1.436
13.100000;0.0229;0.5502;0.9838;1.127
13.105000;0.0757;0.5530;0.9753;1.124
13.110000;0.1192;0.5281;0.8767;1.030
13.117000;0.2242;0.4663;0.6999;0.870
13.120000;0.3213;0.4012;0.6242;0.809
13.126000;0.4384;0.3212;0.5300;0.759
13.188000;0.5205;0.2986;0.4290;0.738
13.189000;0.6200;0.2880;0.3689;0.777
13.189000;0.7398;0.3424;0.3687;0.895
13.190000;0.9088;0.3735;0.3303;1.037
13.190000;1.0542;0.4387;0.2820;1.176
13.190000;1.1790;0.4710;0.1905;1.284
13.190000;1.3207;0.4782;0.0793;1.407
13.191000;1.4603;0.4914;-0.1091;1.545
13.191000;1.5386;0.4780;-0.2841;1.636
13.191000;1.6154;0.4504;-0.4772;1.744
13.191000;1.6689;0.4575;-0.6552;1.850
13.192000;1.7106;0.4163;-0.8448;1.953
13.192000;1.7260;0.3946;-0.9722;2.020
13.193000;1.7294;0.3813;-0.9973;2.032
13.199000;1.6846;0.3147;-0.8271;1.903
13.203000;1.5413;0.2407;-0.4740;1.630
13.208000;1.3594;0.0628;-0.0021;1.361
13.213000;1.1870;-0.0947;0.5621;1.317
13.218000;0.9572;-0.2765;1.0735;1.465
13.223000;0.6658;-0.4789;1.5470;1.751
13.227000;0.3538;-0.6870;2.0912;2.229
13.271000;0.0426;-0.8801;2.5053;2.656
13.272000;-0.3307;-1.0602;2.8504;3.059
13.273000;-0.6588;-1.2326;3.1506;3.447
13.273000;-0.8709;-1.4034;3.3731;3.756
13.273000;-1.0321;-1.4938;3.4415;3.891
13.274000;-1.2100;-1.5839;3.4235;3.961
13.274000;-1.2393;-1.6333;3.3118;3.895
13.275000;-1.2496;-1.6879;3.0974;3.742
13.275000;-1.1600;-1.6734;2.7968;3.459
13.276000;-0.9880;-1.6040;2.4699;3.106
13.282000;-0.8295;-1.4957;2.0494;2.669
13.286000;-0.6709;-1.4002;1.6716;2.281
13.292000;-0.5076;-1.2592;1.2690;1.858
13.296000;-0.3613;-1.1245;0.9703;1.529
13.302000;-0.2705;-1.0025;0.6582;1.229
13.306000;-0.1515;-0.9403;0.3944;1.031
13.311000;-0.0207;-0.8630;0.1690;0.880
13.317000;0.1175;-0.8110;-0.0251;0.820
13.321000;0.1869;-0.7841;-0.1741;0.825
13.325000;0.2526;-0.7795;-0.2325;0.852
13.330000;0.2453;-0.7900;-0.2483;0.864
13.364000;0.2556;-0.8205;-0.1689;0.876
13.364000;0.1834;-0.8494;-0.0853;0.873
13.365000;0.1865;-0.8823;-0.0020;0.902
13.365000;0.1551;-0.9122;0.1074;0.931
13.365000;0.1732;-0.9065;0.1810;0.940
13.365000;0.2220;-0.8898;0.2358;0.947
13.365000;0.2686;-0.8678;0.2362;0.939
13.370000;0.3513;-0.8001;0.1848;0.893
13.374000;0.4321;-0.7276;0.0864;0.851
13.379000;0.5133;-0.6531;-0.1161;0.839
13.387000;0.6310;-0.5741;-0.3318;0.915
13.389000;0.7657;-0.4497;-0.5607;1.050
13.394000;0.8816;-0.3516;-0.7767;1.226
13.400000;0.9400;-0.1907;-0.9870;1.376
13.404000;1.0535;-0.0693;-1.1871;1.589
13.408000;1.1453;0.0463;-1.3030;1.735
13.413000;1.2160;0.1947;-1.4042;1.868
13.447000;1.2724;0.3211;-1.4837;1.981
13.448000;1.3056;0.3897;-1.6108;2.110
13.448000;1.3376;0.3908;-1.7185;2.213
13.448000;1.2946;0.4277;-1.7928;2.252
13.448000;1.2678;0.4214;-1.9148;2.335
13.449000;1.2092;0.4177;-1.9939;2.369
13.449000;1.1185;0.3978;-2.1258;2.435
13.453000;0.9933;0.3571;-2.2435;2.479
13.458000;0.8310;0.3413;-2.3113;2.480
13.463000;0.6791;0.2817;-2.3582;2.470
13.467000;0.4466;0.2573;-2.3101;2.367
13.472000;0.2480;0.1967;-2.2198;2.242
13.477000;0.0424;0.1476;-2.0563;2.062
13.484000;-0.1513;0.0668;-1.8505;1.858
13.488000;-0.3476;-0.0366;-1.6694;1.706
13.492000;-0.5321;-0.1199;-1.4672;1.565
13.498000;-0.7025;-0.1885;-1.2630;1.457
13.503000;-0.8659;-0.2331;-1.1068;1.424
13.507000;-0.9555;-0.2496;-0.9648;1.381
13.513000;-1.0577;-0.2620;-0.9063;1.417
13.519000;-1.0935;-0.2013;-0.8355;1.391
13.521000;-1.0562;-0.1585;-0.7857;1.326
13.527000;-0.9653;-0.0595;-0.7833;1.245
13.586000;-0.8280;0.0528;-0.8521;1.189
13.587000;-0.6608;0.1855;-0.8917;1.125
13.587000;-0.4804;0.3201;-0.9406;1.104
13.587000;-0.2290;0.4896;-0.9938;1.131
13.588000;0.0098;0.6421;-1.0015;1.190
13.588000;0.2292;0.8182;-0.9901;1.305
13.588000;0.4461;0.9131;-1.0074;1.431
13.588000;0.5962;1.0538;-1.0465;1.600
13.589000;0.7329;1.1687;-1.0643;1.742
13.589000;0.8565;1.2820;-1.0611;1.872
13.589000;0.9601;1.3103;-1.0920;1.957
13.590000;1.0439;1.3398;-1.0471;1.995
13.590000;1.0717;1.3707;-1.0196;2.017
13.595000;1.0485;1.3911;-0.9283;1.974
13.602000;0.9835;1.3603;-0.7876;1.854
13.605000;0.8955;1.3547;-0.6214;1.739
13.610000;0.8247;1.3093;-0.4342;1.607
13.617000;0.7447;1.2716;-0.2619;1.497
13.620000;0.6292;1.2199;-0.0587;1.374
13.624000;0.4949;1.1514;0.1442;1.261
13.629000;0.3992;1.0964;0.2445;1.192
13.660000;0.3135;1.0546;0.3976;1.170
13.661000;0.2307;1.0042;0.4747;1.134
13.661000;0.1819;0.9617;0.4855;1.093
13.661000;0.1335;0.9557;0.4778;1.077
13.662000;0.1190;0.9216;0.4445;1.030
13.662000;0.1430;0.8932;0.3546;0.972
13.663000;0.1339;0.9181;0.2510;0.961
13.672000;0.1607;0.9324;0.1003;0.951
13.673000;0.1781;0.9194;-0.0427;0.937
13.678000;0.2027;0.9225;-0.1446;0.956
13.684000;0.2345;0.9134;-0.2415;0.973
13.689000;0.2228;0.9423;-0.3046;1.015
13.693000;0.2228;0.9687;-0.3365;1.049
13.699000;0.2149;0.9761;-0.3732;1.067
13.704000;0.1991;0.9717;-0.3667;1.058
13.708000;0.1466;0.9604;-0.2910;1.014
13.713000;0.1263;0.9635;-0.2153;0.995
13.718000;0.1669;0.9070;-0.1181;0.930
13.723000;0.1464;0.8888;0.0292;0.901
13.728000;0.1295;0.8611;0.1620;0.886
13.737000;0.1071;0.8500;0.2877;0.904
13.738000;0.0918;0.8339;0.4109;0.934
13.742000;0.0844;0.7745;0.5126;0.933
13.747000;0.0251;0.7173;0.6023;0.937
13.805000;-0.0521;0.7053;0.6871;0.986
13.806000;-0.1016;0.6600;0.7455;1.001
13.806000;-0.2380;0.6433;0.7536;1.019
13.807000;-0.3276;0.6364;0.7424;1.031
13.807000;-0.3961;0.6271;0.8818;1.152
13.807000;-0.4940;0.6419;0.7006;1.071
13.807000;-0.5993;0.6496;0.6414;1.092
13.808000;-0.6574;0.6816;0.5654;1.103
13.808000;-0.6996;0.7595;0.4964;1.146
13.808000;-0.6691;0.7924;0.4536;1.132
13.809000;-0.6260;0.8211;0.4679;1.134
13.809000;-0.4757;0.8007;0.4244;1.024
13.811000;-0.3026;0.6832;0.4500;0.872
13.817000;-0.1294;0.5718;0.4633;0.747
13.821000;0.0310;0.4262;0.5142;0.669
13.826000;0.1801;0.3015;0.6337;0.725
13.831000;0.2545;0.2003;0.8505;0.910
13.839000;0.2557;0.1200;1.1118;1.147
13.841000;0.2668;0.0417;1.4820;1.506
13.846000;0.2665;-0.0829;1.8490;1.870
13.896000;0.2528;-0.2114;2.2203;2.245
13.896000;0.2605;-0.3660;2.4311;2.472
13.897000;0.1926;-0.5137;2.8261;2.879
13.897000;0.0982;-0.6528;3.1139;3.183
13.897000;-0.0309;-0.7528;3.2635;3.349
13.898000;-0.2450;-0.8527;3.3520;3.467
13.898000;-0.4183;-0.9794;3.2983;3.466
13.899000;-0.6082;-1.1211;3.1049;3.357
13.899000;-0.7873;-1.2757;2.7649;3.145
13.899000;-0.9354;-1.4308;2.2853;2.854
13.902000;-1.0475;-1.5763;1.7354;2.568
13.905000;-1.0882;-1.6490;1.1171;2.270
13.909000;-1.0871;-1.6433;0.5855;2.055
13.914000;-1.0553;-1.6180;0.0757;1.933
13.919000;-0.9729;-1.5365;-0.4317;1.869
13.924000;-0.8416;-1.4526;-0.8059;1.862
13.929000;-0.5954;-1.3328;-1.1376;1.851
13.977000;-0.3669;-1.0883;-1.3531;1.775
13.978000;-0.1063;-0.8291;-1.4741;1.695
13.978000;0.1332;-0.6630;-1.4981;1.644
13.979000;0.3413;-0.4514;-1.4659;1.571
13.979000;0.5243;-0.2568;-1.3557;1.476
13.979000;0.6408;-0.0721;-1.2011;1.363
13.979000;0.7021;0.0592;-0.9899;1.215
13.980000;0.7416;0.1584;-0.7222;1.047
13.980000;0.7477;0.2038;-0.4479;0.895
13.980000;0.7307;0.2016;-0.1667;0.776
13.983000;0.7203;0.0797;0.0906;0.730
13.988000;0.7059;-0.0927;0.2882;0.768
13.993000;0.6699;-0.3662;0.4405;0.881
13.997000;0.5988;-0.5638;0.4880;0.956
14.004000;0.4816;-0.7815;0.4594;1.027
14.007000;0.3431;-0.9136;0.4956;1.095
14.013000;0.2057;-1.0080;0.4244;1.113
14.060000;0.0743;-1.1077;0.3150;1.154
14.060000;-0.0198;-1.1621;0.1866;1.177
14.061000;-0.0644;-1.2308;0.0222;1.233
14.061000;-0.0883;-1.3305;-0.1757;1.345
14.061000;-0.0939;-1.3938;-0.3737;1.446
14.061000;-0.0244;-1.4183;-0.5481;1.521
14.062000;-0.0046;-1.3536;-0.7274;1.537
14.062000;0.0435;-1.2714;-0.8474;1.529
14.062000;0.0954;-1.1789;-0.9341;1.507
14.062000;0.1235;-1.0238;-0.9636;1.411
14.067000;0.1776;-0.9160;-1.0028;1.370
14.072000;0.1808;-0.7795;-1.0348;1.308
14.077000;0.1999;-0.6887;-1.0524;1.273
14.081000;0.1823;-0.6485;-1.0553;1.252
14.086000;0.1731;-0.5757;-1.0865;1.242
14.090000;0.1078;-0.5304;-1.0836;1.211
14.095000;0.0198;-0.4576;-1.1184;1.209
14.101000;-0.1170;-0.3572;-1.1336;1.194
14.105000;-0.2356;-0.2703;-1.1098;1.166
14.109000;-0.3927;-0.1870;-1.1167;1.198
14.115000;-0.4927;-0.1598;-1.1685;1.278
14.120000;-0.6046;-0.1361;-1.2245;1.372
14.125000;-0.7069;-0.1443;-1.3159;1.501
14.129000;-0.7375;-0.1507;-1.3783;1.570
14.139000;-0.7518;-0.1505;-1.4595;1.649
14.140000;-0.7714;-0.0831;-1.5359;1.721
14.143000;-0.7682;0.0037;-1.5167;1.700
14.149000;-0.7377;0.0982;-1.5072;1.681
14.213000;-0.6707;0.1905;-1.3951;1.560
14.215000;-0.5459;0.2976;-1.2308;1.379
14.215000;-0.4517;0.3905;-1.0978;1.250
14.216000;-0.3475;0.4857;-0.9386;1.112
14.216000;-0.2833;0.5709;-0.7961;1.020
14.217000;-0.2036;0.6363;-0.7012;0.969
14.217000;-0.1655;0.7391;-0.5847;0.957
14.217000;-0.1374;0.7694;-0.5349;0.947
14.217000;-0.1026;0.8467;-0.4944;0.986
14.218000;-0.0941;0.9040;-0.5061;1.040
14.219000;-0.0781;0.9346;-0.5344;1.079
14.219000;-0.0731;0.9746;-0.5340;1.114
14.219000;-0.0288;1.0122;-0.6029;1.179
14.219000;-0.0215;1.0287;-0.6266;1.205
14.225000;-0.0271;1.0793;-0.6291;1.250
14.227000;-0.0238;1.1260;-0.6273;1.289
14.233000;-0.0715;1.1521;-0.5758;1.290
14.238000;-0.1153;1.1767;-0.5034;1.285
14.242000;-0.1698;1.2045;-0.4171;1.286
14.246000;-0.1997;1.1924;-0.3313;1.254
14.296000;-0.2412;1.1736;-0.2172;1.218
14.296000;-0.3047;1.1864;-0.0746;1.227
14.297000;-0.3450;1.2019;0.0580;1.252
14.297000;-0.3604;1.2055;0.2910;1.291
14.297000;-0.3795;1.2374;0.5262;1.397
14.297000;-0.4045;1.2496;0.6658;1.473
14.298000;-0.4039;1.2586;0.8104;1.550
14.298000;-0.4415;1.2758;0.9100;1.628
14.298000;-0.4593;1.2820;0.9790;1.677
14.298000;-0.4952;1.2556;0.9864;1.672
14.302000;-0.5585;1.2489;0.9754;1.680
14.307000;-0.6061;1.2073;0.8910;1.618
14.311000;-0.6690;1.1596;0.7307;1.525
14.315000;-0.7208;1.0702;0.5496;1.402
14.320000;-0.7497;1.0306;0.4310;1.345
14.325000;-0.7393;1.0169;0.2816;1.288
14.330000;-0.7236;0.9745;0.1611;1.224
14.370000;-0.7339;0.9683;0.0813;1.218
14.370000;-0.7231;0.9244;0.0253;1.174
14.371000;-0.6919;0.9359;0.0170;1.164
14.371000;-0.6741;0.9479;0.0636;1.165
14.371000;-0.6319;0.9577;0.1507;1.157
14.371000;-0.6014;0.9558;0.2257;1.152
14.372000;-0.5445;0.9394;0.3581;1.143
14.372000;-0.4971;0.9205;0.4547;1.141
14.374000;-0.4523;0.9104;0.5708;1.166
14.379000;-0.4097;0.8664;0.6511;1.159
14.385000;-0.3355;0.8530;0.7365;1.176
14.389000;-0.2823;0.8413;0.8151;1.205
14.393000;-0.2090;0.8601;0.8986;1.261
14.398000;-0.1319;0.8784;0.9585;1.307
14.404000;-0.0438;0.9032;0.9756;1.330
14.409000;0.0488;0.8940;1.0097;1.350
14.414000;0.1247;0.9155;0.9963;1.359
14.425000;0.2182;0.9271;0.9734;1.362
14.429000;0.2814;0.9001;0.9268;1.322
14.430000;0.3531;0.9019;0.8110;1.263
14.433000;0.4471;0.7869;0.8911;1.270
14.496000;0.5228;0.7535;0.6124;1.103
14.497000;0.5774;0.6944;0.5395;1.052
14.497000;0.6107;0.6389;0.4637;0.998
14.498000;0.5916;0.5966;0.3754;0.920
14.498000;0.5487;0.5753;0.3271;0.860
14.498000;0.5081;0.5700;0.2924;0.818
14.498000;0.4461;0.5620;0.3427;0.795
14.499000;0.3625;0.5444;0.4493;0.794
14.499000;0.2884;0.4859;0.6144;0.835
14.499000;0.2880;0.3628;0.7975;0.922
14.499000;0.2781;0.2130;0.9913;1.051
14.500000;0.3089;0.0482;1.1436;1.186
14.500000;0.3283;-0.0892;1.3119;1.355
14.508000;0.3414;-0.2281;1.4557;1.512
14.509000;0.3173;-0.3256;1.5440;1.610
14.512000;0.3065;-0.3772;1.6320;1.703
14.516000;0.2970;-0.3619;1.7078;1.771
14.522000;0.2767;-0.3394;1.8049;1.857
14.526000;0.2814;-0.3098;1.9306;1.975
14.531000;0.3086;-0.2952;2.0014;2.046
14.588000;0.3938;-0.2863;2.0629;2.120
14.589000;0.4607;-0.3170;2.0891;2.163
14.589000;0.5550;-0.3421;2.0992;2.198
14.590000;0.6508;-0.4003;2.0432;2.181
14.590000;0.7147;-0.5155;1.9022;2.096
14.590000;0.7874;-0.5874;1.7407;1.999
14.590000;0.7948;-0.6831;1.4897;1.821
14.591000;0.7896;-0.7807;1.2135;1.645
14.591000;0.7214;-0.8177;0.9336;1.435
14.591000;0.6455;-0.8437;0.6258;1.233
14.591000;0.5568;-0.8654;0.3161;1.076
14.592000;0.5436;-0.8343;0.0569;0.997
14.596000;0.4890;-0.8984;-0.2214;1.047
14.600000;0.4955;-0.9329;-0.4281;1.140
14.605000;0.4339;-0.9495;-0.6280;1.218
14.610000;0.4165;-1.0150;-0.8520;1.389
14.615000;0.3669;-1.0722;-1.0716;1.560
14.625000;0.3085;-1.1375;-1.2175;1.694
14.625000;0.2817;-1.1989;-1.3901;1.857
14.630000;0.2976;-1.2684;-1.5750;2.044
14.635000;0.2955;-1.3079;-1.7148;2.177
14.690000;0.3177;-1.3146;-1.7738;2.231
14.691000;0.3658;-1.3316;-1.7928;2.263
14.691000;0.3796;-1.3089;-1.7382;2.209
14.691000;0.4091;-1.2897;-1.6436;2.129
14.692000;0.4207;-1.2910;-1.5566;2.066
14.692000;0.3790;-1.2844;-1.3623;1.910
14.692000;0.3632;-1.2967;-1.1851;1.794
14.692000;0.3736;-1.3258;-0.9864;1.694
14.693000;0.4344;-1.3293;-0.7804;1.602
14.693000;0.4956;-1.3076;-0.6578;1.545
14.693000;0.5673;-1.2730;-0.5560;1.500
14.694000;0.5953;-1.2353;-0.5252;1.468
14.699000;0.5781;-1.1874;-0.5845;1.444
14.703000;0.5572;-1.1413;-0.7289;1.464
14.708000;0.5883;-1.0895;-0.8702;1.513
14.714000;0.6403;-1.0029;-1.0754;1.604
14.718000;0.6920;-0.9694;-1.2898;1.756
14.724000;0.7335;-0.9406;-1.5208;1.933
14.731000;0.7575;-0.8227;-1.6755;2.014
14.733000;0.7446;-0.7540;-1.7875;2.078
14.790000;0.7685;-0.6553;-1.8571;2.114
14.792000;0.7930;-0.5409;-1.8508;2.085
14.792000;0.8086;-0.4874;-1.7903;2.024
14.793000;0.8052;-0.4661;-1.7687;1.998
14.793000;0.7662;-0.4247;-1.7285;1.938
14.793000;0.7108;-0.3967;-1.6410;1.832
14.793000;0.5935;-0.3731;-1.5801;1.729
14.794000;0.4739;-0.3730;-1.4861;1.604
14.794000;0.3304;-0.3749;-1.4377;1.522
14.794000;0.1797;-0.4054;-1.3774;1.447
14.795000;0.0648;-0.4071;-1.3698;1.431
14.795000;-0.0598;-0.4618;-1.3238;1.403
14.795000;-0.1462;-0.4926;-1.3064;1.404
14.801000;-0.2904;-0.5095;-1.3103;1.436
14.806000;-0.3369;-0.5051;-1.3046;1.439
14.811000;-0.3982;-0.5105;-1.2939;1.447
14.815000;-0.4170;-0.5112;-1.3071;1.464
14.822000;-0.4293;-0.5098;-1.2818;1.445
14.825000;-0.4064;-0.5229;-1.2828;1.444
14.830000;-0.4010;-0.4766;-1.2645;1.410
14.834000;-0.3628;-0.4616;-1.2413;1.373
14.872000;-0.2942;-0.4062;-1.2204;1.319
14.873000;-0.2046;-0.3559;-1.1755;1.245
14.873000;-0.1179;-0.2704;-1.1281;1.166
14.873000;-0.0196;-0.1946;-1.1212;1.138
14.874000;0.0357;-0.1312;-1.1166;1.125
14.874000;0.1318;-0.0657;-1.1263;1.136
14.874000;0.2164;0.0210;-1.1310;1.152
14.874000;0.3037;0.0763;-1.1524;1.194
14.879000;0.3392;0.1601;-1.1761;1.234
14.883000;0.3517;0.2558;-1.1879;1.265
14.889000;0.3129;0.3135;-1.1999;1.279
14.894000;0.2994;0.3713;-1.2144;1.305
14.898000;0.2555;0.4080;-1.2147;1.307
14.904000;0.1956;0.4165;-1.1962;1.282
14.908000;0.1838;0.4543;-1.1994;1.296
14.914000;0.1437;0.4949;-1.1671;1.276
14.918000;0.1084;0.5717;-1.1588;1.297
14.924000;0.1066;0.6297;-1.1101;1.281
14.929000;0.0878;0.7357;-1.0329;1.271
14.933000;0.1454;0.8370;-0.9941;1.308
14.942000;0.1522;0.9404;-0.9577;1.351
14.945000;0.2136;1.0628;-0.8830;1.398
14.947000;0.2360;1.1563;-0.8299;1.443
14.953000;0.2886;1.2997;-0.7696;1.538
15.011000;0.3281;1.3975;-0.7213;1.606
15.012000;0.3737;1.5427;-0.6228;1.705
15.013000;0.3991;1.6157;-0.5242;1.745
15.013000;0.4279;1.7361;-0.3945;1.831
15.013000;0.4505;1.8080;-0.2814;1.884
15.013000;0.4093;1.8886;-0.1633;1.939
15.014000;0.3593;1.9614;-0.0021;1.994
15.014000;0.2764;2.0165;0.1330;2.040
15.014000;0.2590;2.0684;0.2684;2.102
15.015000;0.2255;2.0693;0.3896;2.118
15.015000;0.1905;2.0744;0.5109;2.145
15.015000;0.1636;2.0481;0.6706;2.161
15.016000;0.1068;2.0336;0.8779;2.218
15.023000;0.0675;1.9785;1.0970;2.263
15.028000;0.0557;1.9593;1.3230;2.365
15.031000;0.0520;1.9233;1.5202;2.452
15.036000;0.0907;1.8777;1.7818;2.590
15.041000;0.1435;1.8317;2.0529;2.755
15.047000;0.2184;1.7684;2.2139;2.842
15.050000;0.3322;1.7425;2.4589;3.032
15.102000;0.3779;1.7393;2.6109;3.160
15.103000;0.4062;1.7298;2.7800;3.299
15.104000;0.4175;1.7211;2.8852;3.385
15.104000;0.4146;1.7462;2.9169;3.425
15.105000;0.2957;1.7742;2.8131;3.339
15.105000;0.1521;1.8074;2.6887;3.243
15.105000;0.0057;1.8653;2.4813;3.104
15.106000;-0.1193;1.8598;2.2100;2.891
15.106000;-0.2183;1.8824;2.0444;2.788
15.106000;-0.3393;1.8544;1.4919;2.404
15.107000;-0.3849;1.7503;1.3414;2.239
15.109000;-0.4036;1.5562;1.1668;1.986
15.114000;-0.4013;1.3851;0.9250;1.713
15.119000;-0.4889;1.2370;0.8191;1.562
15.124000;-0.5265;1.0382;0.7629;1.392
15.130000;-0.5870;0.8244;0.7324;1.249
15.134000;-0.6381;0.6696;0.7874;1.215
15.145000;-0.6807;0.4754;0.8755;1.207
15.146000;-0.6655;0.2321;0.9417;1.176
15.148000;-0.6217;-0.0154;1.0101;1.186
15.153000;-0.5855;-0.2764;1.0328;1.219
15.226000;-0.5923;-0.4696;1.0770;1.316
15.228000;-0.6655;-0.5952;1.1399;1.448
15.228000;-0.6943;-0.6266;1.2120;1.531
15.228000;-0.7422;-0.6283;1.3673;1.678
15.229000;-0.7133;-0.6218;1.5362;1.804
15.229000;-0.6663;-0.6763;1.6495;1.903
15.229000;-0.5478;-0.7731;1.7505;1.990
15.229000;-0.4573;-0.9315;1.7984;2.076
15.229000;-0.3083;-1.0774;1.8534;2.166
15.230000;-0.2366;-1.2374;1.8150;2.209
15.230000;-0.1606;-1.3474;1.7195;2.190
15.230000;-0.1083;-1.4383;1.5643;2.128
15.231000;-0.0960;-1.4502;1.3638;1.993
15.231000;-0.1566;-1.4806;1.0844;1.842
15.231000;-0.2347;-1.4693;0.8500;1.714
15.231000;-0.3016;-1.4467;0.6365;1.609
15.237000;-0.3506;-1.3883;0.3694;1.479
15.241000;-0.4535;-1.3727;0.2257;1.463
15.247000;-0.4958;-1.3328;0.0783;1.424
15.251000;-0.5450;-1.3475;-0.0200;1.454
15.258000;-0.5942;-1.3428;-0.0501;1.469
15.261000;-0.6089;-1.3933;0.0383;1.521
15.265000;-0.6848;-1.4323;0.0781;1.589
15.269000;-0.7346;-1.4392;0.1869;1.627
15.303000;-0.8207;-1.4767;0.3170;1.719
15.304000;-0.8629;-1.4934;0.4043;1.771
15.304000;-0.9069;-1.5208;0.4612;1.830
15.304000;-0.9533;-1.5170;0.4904;1.858
15.304000;-0.9900;-1.5349;0.5018;1.894
15.305000;-0.9909;-1.5586;0.4167;1.893
15.305000;-0.9962;-1.5784;0.2448;1.882
15.309000;-0.9578;-1.5709;0.0963;1.842
15.314000;-0.9113;-1.5714;-0.1247;1.821
15.319000;-0.8418;-1.5102;-0.3752;1.769
15.324000;-0.7491;-1.4800;-0.6770;1.792
15.329000;-0.6686;-1.4203;-0.9538;1.837
15.333000;-0.5929;-1.3785;-1.1606;1.897
15.340000;-0.5077;-1.3633;-1.4721;2.070
15.343000;-0.4175;-1.3550;-1.7044;2.217
15.348000;-0.3199;-1.2911;-1.9056;2.324
15.354000;-0.2291;-1.2476;-2.0402;2.402
15.410000;-0.1622;-1.1790;-2.1226;2.433
15.410000;-0.1457;-1.0850;-2.1506;2.413
15.411000;-0.2012;-0.9918;-2.0719;2.306
15.411000;-0.2430;-0.9210;-1.9390;2.160
15.411000;-0.2881;-0.8560;-1.7591;1.977
15.412000;-0.3416;-0.8355;-1.5344;1.780
15.412000;-0.3939;-0.8171;-1.2982;1.584
15.412000;-0.4541;-0.7989;-1.0767;1.415
15.412000;-0.4552;-0.8126;-0.8693;1.274
15.413000;-0.4947;-0.8109;-0.7429;1.206
15.413000;-0.5390;-0.8228;-0.6876;1.200
15.413000;-0.5759;-0.8416;-0.7128;1.244
15.417000;-0.6078;-0.8623;-0.7895;1.318
15.422000;-0.6372;-0.8586;-0.9442;1.426
15.427000;-0.6141;-0.8278;-1.0957;1.504
15.431000;-0.6251;-0.7862;-1.2393;1.595
15.437000;-0.6202;-0.6857;-1.3346;1.624
15.441000;-0.5807;-0.6239;-1.4368;1.671
15.446000;-0.5166;-0.5549;-1.5270;1.705
15.451000;-0.4663;-0.4855;-1.5504;1.690
15.501000;-0.3723;-0.4152;-1.5503;1.648
15.502000;-0.3210;-0.3107;-1.5171;1.582
15.502000;-0.2808;-0.2840;-1.4320;1.487
15.503000;-0.2257;-0.2156;-1.3212;1.358
15.503000;-0.1959;-0.1870;-1.1822;1.213
15.503000;-0.1962;-0.1958;-1.0414;1.078
15.503000;-0.2115;-0.1608;-0.9011;0.939
15.504000;-0.2225;-0.1370;-0.7637;0.807
15.504000;-0.2406;-0.1128;-0.6290;0.683
