time;ax;ay;az;aT
0.003000;0.1242;-0.1733;-0.1933;0.288
0.003000;0.2436;-0.1837;-0.4567;0.549
0.004000;0.3121;-0.1508;-0.5920;0.686
0.010000;0.2857;-0.1215;-0.6127;0.687
0.014000;0.2603;-0.0771;-0.5293;0.595
0.019000;0.2000;-0.0338;-0.3571;0.411
0.029000;0.1126;-0.0013;-0.1419;0.181
0.030000;0.0144;0.0914;0.0970;0.134
0.034000;-0.0617;0.1276;0.3025;0.334
0.039000;-0.0928;0.0979;0.3755;0.399
0.044000;-0.0830;-0.0350;0.3480;0.359
0.050000;-0.0845;-0.1447;0.1972;0.259
0.053000;-0.0472;-0.2619;0.0949;0.283
0.058000;0.0532;-0.2660;0.0077;0.271
0.063000;0.1100;-0.2643;-0.0007;0.286
0.068000;0.0722;-0.2621;-0.0706;0.281
0.076000;0.0425;-0.2448;-0.0665;0.257
0.078000;0.0143;-0.2154;-0.0599;0.224
0.083000;0.0301;-0.1668;-0.0463;0.176
0.087000;0.0208;-0.1113;0.0267;0.116
0.093000;0.0244;-0.0512;0.1015;0.116
0.098000;0.0244;-0.0154;0.2020;0.204
0.102000;-0.0500;0.0147;0.2499;0.255
0.110000;-0.1579;0.0534;0.2953;0.339
0.113000;-0.1994;0.0364;0.3194;0.378
0.118000;-0.1944;0.0630;0.3605;0.414
0.122000;-0.1940;0.0546;0.3734;0.424
0.127000;-0.1747;0.0298;0.3654;0.406
0.132000;-0.1628;0.0079;0.3249;0.364
0.137000;-0.1361;0.0004;0.3021;0.331
0.142000;-0.1086;-0.0069;0.3063;0.325
0.147000;-0.0752;-0.0263;0.3065;0.317
0.151000;-0.0449;-0.0546;0.2907;0.299
0.158000;-0.0438;-0.0850;0.2994;0.314
0.161000;-0.0407;-0.0907;0.3466;0.361
0.167000;-0.0474;-0.1147;0.3037;0.328
0.171000;-0.0618;-0.1090;0.2568;0.286
0.176000;-0.1009;-0.1137;0.2320;0.277
0.182000;-0.1576;-0.1048;0.1576;0.246
0.186000;-0.1612;-0.0673;0.1361;0.221
0.192000;-0.2146;0.0007;0.0981;0.236
0.195000;-0.2086;0.0044;0.0484;0.214
0.201000;-0.2341;0.0298;-0.0248;0.237
0.206000;-0.1882;0.0509;-0.0906;0.215
0.211000;-0.1423;0.0321;-0.1275;0.194
0.216000;-0.0984;0.0310;-0.1691;0.198
0.221000;-0.0044;-0.0196;-0.1417;0.143
0.226000;0.0153;-0.0380;-0.1147;0.122
0.231000;0.0490;-0.0816;-0.1261;0.158
0.235000;0.0465;-0.1052;-0.1448;0.185
0.241000;0.0363;-0.0920;-0.1469;0.177
0.248000;0.0042;-0.0495;-0.1470;0.155
0.251000;-0.0258;-0.0065;-0.1164;0.119
0.255000;-0.0442;0.0322;-0.1433;0.153
0.260000;-0.0468;0.0594;-0.1416;0.161
0.264000;-0.0428;0.1129;-0.1187;0.169
0.269000;-0.0301;0.1618;-0.0461;0.171
0.274000;-0.0446;0.1585;0.0234;0.166
0.280000;-0.0075;0.1911;0.0901;0.211
0.284000;-0.0356;0.1880;0.1634;0.252
0.289000;-0.0555;0.1706;0.3029;0.352
0.294000;-0.0656;0.1585;0.1964;0.261
0.299000;-0.0635;0.1157;0.0713;0.150
0.304000;-0.0599;0.1377;-0.0411;0.156
0.310000;-0.0638;0.1033;-0.1597;0.201
0.314000;-0.0312;0.0839;-0.1968;0.216
0.318000;-0.0213;0.0700;-0.1340;0.153
0.324000;0.0590;0.0351;-0.0313;0.075
0.328000;0.0569;0.0409;0.1013;0.123
0.333000;0.0512;0.0230;0.2091;0.217
0.338000;0.0388;0.0384;0.3311;0.336
0.344000;-0.0018;0.0246;0.4740;0.475
0.348000;-0.0187;0.0531;0.5544;0.557
0.353000;-0.0572;0.0376;0.6203;0.624
0.358000;-0.1198;0.0477;0.7146;0.726
0.363000;-0.1964;0.0186;0.7777;0.802
0.367000;-0.2250;-0.0066;0.8240;0.854
0.372000;-0.2102;-0.0542;0.8990;0.925
0.378000;-0.1830;-0.0979;0.9477;0.970
0.383000;-0.1769;-0.1070;0.9703;0.992
0.387000;-0.1488;-0.1292;0.9907;1.010
0.393000;-0.0942;-0.1504;0.9520;0.968
0.396000;-0.0677;-0.1635;0.9019;0.919
0.402000;-0.0263;-0.1495;0.8406;0.854
0.410000;-0.0460;-0.1681;0.8349;0.853
0.411000;-0.0792;-0.2239;0.7534;0.790
0.416000;-0.0354;-0.1859;0.5467;0.578
0.421000;-0.0129;-0.1827;0.6079;0.635
0.426000;0.0409;-0.1427;0.4407;0.465
0.432000;0.0613;-0.0941;0.3080;0.328
0.436000;0.0604;-0.0373;0.1857;0.199
0.442000;0.0623;-0.0119;0.0165;0.066
0.446000;0.0741;0.0250;-0.1207;0.144
0.451000;0.0887;0.1002;-0.2073;0.247
0.456000;0.0654;0.1635;-0.2222;0.284
0.464000;0.0374;0.2725;-0.1824;0.330
0.465000;-0.0051;0.3483;-0.0954;0.361
0.471000;-0.0222;0.3983;-0.0399;0.401
0.477000;-0.0862;0.4508;-0.0467;0.461
0.481000;-0.1134;0.4703;-0.1156;0.497
0.485000;-0.1472;0.4617;-0.1937;0.522
0.490000;-0.2111;0.4325;-0.2883;0.561
0.494000;-0.2429;0.4376;-0.3779;0.627
0.500000;-0.3134;0.4295;-0.5031;0.732
0.505000;-0.3742;0.4057;-0.5588;0.785
0.519000;-0.3936;0.3570;-0.5884;0.793
0.519000;-0.4264;0.2835;-0.5848;0.777
0.520000;-0.4394;0.2303;-0.5504;0.741
0.526000;-0.3543;0.0782;-0.4880;0.608
0.531000;-0.3030;-0.0893;-0.4236;0.528
0.536000;-0.2043;-0.1810;-0.4050;0.488
0.539000;-0.1205;-0.2763;-0.4082;0.507
0.545000;-0.0231;-0.3511;-0.4283;0.554
0.549000;0.0592;-0.3769;-0.4701;0.605
0.554000;0.0997;-0.4012;-0.4619;0.620
0.559000;0.1655;-0.3768;-0.4541;0.613
0.563000;0.1657;-0.3226;-0.4990;0.617
0.569000;0.1485;-0.2820;-0.5773;0.659
0.573000;0.1092;-0.2288;-0.6245;0.674
0.579000;0.0865;-0.1892;-0.7050;0.735
0.583000;0.0946;-0.1726;-0.8045;0.828
0.588000;0.1009;-0.1624;-0.8704;0.891
0.593000;0.0889;-0.1625;-0.9316;0.950
0.598000;0.0545;-0.1540;-0.9858;0.999
0.603000;0.0290;-0.1439;-0.9949;1.006
0.608000;0.0389;-0.1585;-0.9520;0.966
0.624000;0.0932;-0.1855;-0.9121;0.935
0.625000;0.1728;-0.2063;-0.8370;0.879
0.626000;0.4035;-0.1991;-0.6960;0.829
0.629000;1.1161;0.0570;-0.4367;1.200
0.633000;0.9939;-0.0163;-0.3716;1.061
0.637000;0.9057;-0.0797;-0.3283;0.967
0.644000;0.5698;-0.4669;-0.2113;0.766
0.647000;0.3791;-0.6767;-0.1064;0.783
0.652000;0.4397;-0.6290;-0.0424;0.769
0.656000;0.4387;-0.6256;0.0432;0.765
0.664000;0.3149;-0.6188;0.1001;0.702
0.666000;0.1854;-0.6732;0.1453;0.713
0.671000;0.0866;-0.6549;0.2240;0.698
0.677000;-0.0249;-0.6599;0.2933;0.723
0.681000;-0.0773;-0.5906;0.4199;0.729
0.686000;-0.1738;-0.5478;0.5512;0.796
0.691000;-0.1924;-0.4788;0.6016;0.793
0.697000;-0.2549;-0.4102;0.6760;0.831
0.701000;-0.3039;-0.3419;0.6936;0.831
0.706000;-0.3351;-0.3314;0.7093;0.852
0.712000;-0.3415;-0.3187;0.6635;0.811
0.717000;-0.3355;-0.3651;0.5803;0.763
0.720000;-0.2736;-0.3696;0.4977;0.678
0.731000;-0.1947;-0.3389;0.4704;0.612
0.731000;-0.1566;-0.3158;0.4982;0.610
0.734000;-0.1715;-0.2615;0.4877;0.579
0.739000;-0.2011;-0.2070;0.4487;0.534
0.745000;-0.2390;-0.1783;0.4216;0.516
0.749000;-0.2851;-0.1631;0.4136;0.528
0.754000;-0.3347;-0.1066;0.4150;0.544
0.760000;-0.3568;-0.0683;0.4066;0.545
0.764000;-0.3639;0.0305;0.4361;0.569
0.769000;-0.3701;0.0843;0.4487;0.588
0.774000;-0.3782;0.0695;0.3848;0.544
0.782000;-0.3688;0.0770;0.2996;0.481
0.784000;-0.3754;0.0779;0.2741;0.471
0.789000;-0.3546;0.0486;0.2247;0.423
0.795000;-0.3544;0.0628;0.1467;0.389
0.798000;-0.3721;0.0441;0.0737;0.382
0.803000;-0.3433;0.0592;-0.0302;0.350
0.808000;-0.3298;0.0532;-0.0670;0.341
0.813000;-0.2838;0.0951;-0.0918;0.313
0.819000;-0.2579;0.1301;-0.0523;0.294
0.823000;-0.2067;0.1695;-0.0105;0.268
0.829000;-0.1758;0.1993;0.0192;0.266
0.833000;-0.1677;0.1999;0.0702;0.270
0.838000;-0.1610;0.2074;0.1164;0.287
0.844000;-0.1008;0.1929;0.0837;0.233
0.847000;-0.1018;0.1827;0.0584;0.217
0.853000;-0.0682;0.1817;0.0428;0.199
0.857000;-0.0524;0.1518;0.0034;0.161
0.862000;-0.0899;0.0910;-0.0263;0.131
0.867000;-0.1063;0.0469;-0.0868;0.145
0.873000;-0.1326;-0.0039;-0.1162;0.176
0.877000;-0.2092;-0.0470;-0.0884;0.232
0.882000;-0.2810;-0.0992;-0.0941;0.313
0.888000;-0.3199;-0.1553;-0.0784;0.364
0.892000;-0.3880;-0.1510;-0.0200;0.417
0.896000;-0.4232;-0.1485;0.0286;0.449
0.901000;-0.4397;-0.1503;0.0864;0.473
0.906000;-0.4732;-0.1375;0.1607;0.518
0.911000;-0.5065;-0.1295;0.1990;0.559
0.916000;-0.4445;-0.1909;0.1752;0.515
0.921000;-0.4872;-0.3931;0.1373;0.641
0.925000;-0.3356;-0.3207;0.0949;0.474
0.933000;-0.0925;-0.2202;0.0384;0.242
0.936000;0.0366;-0.1442;-0.0608;0.161
0.941000;0.1906;-0.0975;-0.0618;0.223
0.947000;0.5415;-0.0201;0.1925;0.575
0.951000;0.8162;0.0993;0.2458;0.858
0.955000;0.7338;0.1936;0.1441;0.772
0.960000;0.5230;0.2297;-0.0359;0.572
0.965000;0.3576;0.2244;-0.1077;0.436
0.970000;0.2101;0.1686;-0.0696;0.278
0.975000;0.1254;0.1052;-0.0218;0.165
0.981000;-0.0327;-0.0061;-0.0100;0.035
0.985000;-0.1590;-0.0937;-0.0672;0.196
0.989000;-0.2703;-0.1552;-0.0789;0.322
0.994000;-0.3454;-0.1855;-0.0809;0.400
1.000000;-0.3861;-0.1917;-0.0234;0.432
1.004000;-0.4022;-0.1904;-0.0495;0.448
1.012000;-0.3960;-0.1675;0.0103;0.430
1.015000;-0.3104;-0.1921;0.0770;0.373
1.019000;-0.2247;-0.1927;0.1674;0.340
1.024000;-0.1610;-0.2027;0.2885;0.388
1.029000;-0.1366;-0.2078;0.3710;0.447
1.034000;-0.1330;-0.2107;0.4031;0.474
1.038000;-0.1334;-0.1973;0.4376;0.498
1.044000;-0.1238;-0.1531;0.4362;0.479
1.048000;-0.1304;-0.1047;0.4372;0.468
1.053000;-0.1223;-0.0784;0.4430;0.466
1.058000;-0.1166;-0.0527;0.4083;0.428
1.063000;-0.1155;-0.0205;0.3070;0.329
1.068000;-0.1355;0.0253;0.2228;0.262
1.073000;-0.1446;0.0705;0.1460;0.217
1.078000;-0.1567;0.1223;-0.0521;0.206
1.083000;-0.1670;0.0708;0.1489;0.235
1.087000;-0.1181;0.0573;0.0273;0.134
1.094000;-0.1125;0.0673;-0.0819;0.155
1.097000;-0.0854;0.0536;-0.1121;0.151
1.103000;-0.0866;0.0877;-0.1685;0.209
1.107000;-0.0393;0.0861;-0.2079;0.228
1.112000;-0.0006;0.1063;-0.2282;0.252
1.117000;0.0392;0.1126;-0.2295;0.259
1.122000;0.0991;0.0930;-0.1496;0.202
1.129000;0.1282;0.0598;-0.1203;0.186
1.134000;0.0952;0.0178;-0.0529;0.110
1.136000;0.0692;0.0074;0.0404;0.080
1.141000;0.0285;-0.0142;0.0545;0.063
1.146000;-0.0464;0.0241;0.2213;0.227
1.151000;-0.0961;0.0960;0.4065;0.429
1.156000;-0.1097;0.1725;0.5006;0.541
1.161000;-0.1182;0.2224;0.5275;0.585
1.166000;-0.1192;0.2242;0.4065;0.479
1.171000;-0.0879;0.2019;0.2693;0.348
1.176000;-0.0435;0.1247;0.1539;0.203
1.180000;0.0339;0.0763;0.0819;0.117
1.186000;0.1537;-0.0197;0.0387;0.160
1.190000;0.2328;-0.0773;0.0864;0.260
1.196000;0.2617;-0.1156;0.1268;0.313
1.200000;0.3269;-0.1488;0.0978;0.372
1.206000;0.3372;-0.1576;0.0427;0.375
1.213000;0.3245;-0.1782;0.0092;0.370
1.215000;0.2914;-0.1602;-0.0434;0.335
1.223000;0.2335;-0.1420;-0.0171;0.274
1.224000;0.1605;-0.0950;0.0377;0.190
1.233000;0.1081;-0.0862;0.0708;0.155
1.234000;0.0710;-0.0658;0.1397;0.170
1.239000;0.0352;-0.0694;0.1893;0.205
1.245000;0.0264;-0.0903;0.1816;0.205
1.249000;0.0020;-0.0736;0.1526;0.169
1.254000;0.0144;-0.0767;0.1238;0.146
1.259000;0.0637;-0.0707;0.0426;0.104
1.264000;0.0948;-0.0699;-0.0096;0.118
1.269000;0.1526;-0.1721;-0.0975;0.250
1.274000;0.2459;-0.6055;-0.2328;0.694
1.278000;0.1103;-0.8583;-0.4275;0.965
1.283000;-0.1320;-0.7941;-0.4715;0.933
1.288000;-0.2288;-0.5181;-0.3273;0.654
1.294000;-0.2083;-0.1883;-0.1861;0.337
1.298000;-0.2135;0.1443;-0.0863;0.272
1.303000;-0.2538;0.3124;-0.0394;0.404
1.307000;-0.4773;0.4324;-0.2122;0.678
1.313000;-0.7795;0.4857;-0.3416;0.980
1.317000;-0.7816;0.4411;-0.3036;0.947
1.323000;-0.5072;0.3872;-0.1345;0.652
1.331000;-0.1798;0.2667;0.0079;0.322
1.333000;0.0032;0.1011;0.0831;0.131
1.338000;0.0296;-0.0024;0.0387;0.049
1.343000;0.0090;-0.1058;-0.0770;0.131
1.352000;0.0295;-0.2429;-0.2353;0.340
1.353000;0.0771;-0.3823;-0.3550;0.527
1.357000;0.2215;-0.4855;-0.4267;0.683
1.362000;0.3982;-0.5000;-0.4577;0.786
1.367000;0.4140;-0.4929;-0.4457;0.783
1.372000;0.3888;-0.4640;-0.4601;0.760
1.376000;0.3796;-0.3967;-0.4124;0.687
1.383000;0.3385;-0.3387;-0.3602;0.599
1.387000;0.2291;-0.2279;-0.3059;0.445
1.391000;0.0705;-0.1814;-0.2517;0.318
1.396000;-0.0589;-0.1158;-0.1953;0.235
1.401000;-0.1455;-0.0739;-0.0938;0.188
1.406000;-0.2019;-0.0295;-0.0163;0.205
1.414000;-0.2213;-0.0278;-0.0012;0.223
1.415000;-0.2539;-0.0045;0.0307;0.256
1.421000;-0.2708;0.0093;0.0242;0.272
1.426000;-0.2549;0.0015;0.0441;0.259
1.433000;-0.1942;-0.0352;0.0950;0.219
1.435000;-0.1773;-0.0533;0.1531;0.240
1.440000;-0.1425;-0.1007;0.2469;0.302
1.446000;-0.1332;-0.1634;0.2524;0.329
1.450000;-0.1278;-0.1697;0.2437;0.323
1.455000;-0.1142;-0.1820;0.2234;0.310
1.460000;-0.1161;-0.1447;0.2318;0.297
1.465000;-0.1094;-0.1181;0.2333;0.283
1.469000;-0.1274;-0.0445;0.2325;0.269
1.475000;-0.1342;-0.0314;0.1983;0.242
1.479000;-0.1539;-0.0285;0.2145;0.266
1.484000;-0.1720;-0.0164;0.2165;0.277
1.489000;-0.1671;0.0071;0.1874;0.251
1.495000;-0.1244;-0.0269;0.1609;0.205
1.499000;-0.1289;0.0007;0.2085;0.245
1.504000;-0.1408;0.0401;0.2226;0.266
1.509000;-0.1340;0.0501;0.1388;0.199
1.514000;-0.1235;0.0523;0.0052;0.134
1.519000;-0.0739;0.0136;-0.0755;0.107
1.524000;-0.0760;-0.0159;-0.0820;0.113
1.530000;-0.0797;0.0166;-0.1313;0.155
1.535000;-0.0878;0.0085;-0.2021;0.221
1.540000;-0.0840;0.0221;-0.3014;0.314
1.543000;-0.1214;0.0029;-0.3647;0.384
1.549000;-0.1350;0.0109;-0.3803;0.404
1.554000;-0.1487;0.0388;-0.3912;0.420
1.558000;-0.1409;0.0583;-0.3355;0.368
1.563000;-0.1283;0.1001;-0.2848;0.328
1.567000;-0.1233;0.1068;-0.2343;0.285
1.573000;-0.1090;0.0832;-0.1889;0.233
1.579000;-0.1166;0.0865;-0.1341;0.198
1.582000;-0.0838;0.1019;-0.0460;0.140
1.587000;-0.0754;0.0766;0.0037;0.108
1.592000;-0.0367;0.1060;0.0390;0.119
1.598000;0.0059;0.0896;0.0551;0.105
1.602000;-0.0069;0.0608;0.0809;0.101
1.607000;-0.0344;0.0172;0.1378;0.143
1.615000;-0.0670;-0.0125;0.1564;0.171
1.616000;-0.0281;-0.0259;0.1726;0.177
1.623000;-0.0493;-0.0039;0.1937;0.200
1.627000;-0.1009;-0.0394;0.1969;0.225
1.645000;-0.1186;-0.0391;0.1954;0.232
1.647000;-0.1144;-0.0271;0.1843;0.219
1.647000;-0.1170;-0.0127;0.1876;0.221
1.648000;-0.0789;-0.0223;0.1695;0.188
1.651000;-0.0551;-0.0198;0.1231;0.136
1.656000;-0.0311;-0.0359;0.1078;0.118
1.661000;0.0027;-0.0207;0.0855;0.088
1.665000;0.0037;-0.0217;0.1084;0.111
1.670000;-0.0114;-0.0103;0.1214;0.122
1.676000;-0.0209;-0.0033;0.1106;0.113
1.680000;-0.0085;-0.0126;0.1401;0.141
1.685000;-0.0195;-0.0074;0.1527;0.154
1.689000;-0.0583;-0.0447;0.1509;0.168
1.696000;-0.0627;-0.0366;0.1776;0.192
1.700000;-0.0640;-0.0453;0.2207;0.234
1.705000;-0.0768;-0.0138;0.2659;0.277
1.710000;-0.0712;0.0148;0.2561;0.266
1.716000;-0.0666;0.0549;0.2228;0.239
1.720000;-0.0346;0.0990;0.1684;0.198
1.725000;0.0320;0.1232;0.1502;0.197
1.732000;0.0622;0.1301;0.1132;0.183
1.738000;0.0567;0.1720;0.0671;0.193
1.740000;0.0539;0.1322;0.0477;0.151
1.744000;0.0538;0.1067;0.2277;0.257
1.757000;0.0662;0.1139;0.0481;0.140
1.758000;0.0908;0.1087;-0.0161;0.143
1.759000;0.0707;0.1224;0.0555;0.152
1.766000;0.0421;0.1148;-0.0753;0.144
1.768000;-0.0088;0.1027;-0.0697;0.124
1.774000;-0.0465;0.0814;0.0188;0.096
1.779000;-0.0263;0.0530;0.1090;0.124
1.783000;-0.0392;0.0652;0.1961;0.210
1.788000;-0.0593;-0.0038;0.2872;0.293
1.793000;-0.0225;-0.0017;0.3635;0.364
1.798000;0.0068;-0.0360;0.3799;0.382
1.803000;0.0331;-0.0663;0.3537;0.361
1.808000;0.0495;-0.0781;0.3421;0.354
1.815000;0.0345;-0.0362;0.3330;0.337
1.818000;0.0049;-0.0334;0.3005;0.302
1.822000;-0.0252;0.0185;0.2470;0.249
1.827000;-0.0347;0.0646;0.1846;0.199
1.836000;-0.0615;0.0885;0.1181;0.160
1.837000;-0.0294;0.0810;-0.0404;0.095
1.842000;-0.0051;0.0709;-0.1571;0.172
1.847000;0.0286;0.0496;-0.2635;0.270
1.852000;0.0362;0.0599;-0.3192;0.327
1.857000;0.0533;0.0402;-0.3320;0.339
1.861000;0.0537;0.0576;-0.3140;0.324
1.868000;0.0350;0.0548;-0.2821;0.289
1.872000;-0.0007;0.0534;-0.2435;0.249
1.876000;-0.0226;0.0651;-0.2411;0.251
1.882000;-0.0305;0.0350;-0.1654;0.172
1.886000;-0.0121;0.0466;-0.0810;0.094
1.891000;0.0134;0.0469;-0.0306;0.058
1.897000;-0.0059;0.0260;0.0170;0.032
1.901000;-0.0415;0.0195;-0.0070;0.046
1.906000;-0.0597;-0.0015;0.0475;0.076
1.910000;-0.0611;0.0081;0.0471;0.078
1.916000;-0.0623;0.0217;0.0278;0.072
1.921000;-0.0777;0.0371;0.0112;0.087
1.925000;-0.0739;0.0304;-0.0005;0.080
1.932000;-0.0512;0.0376;-0.0002;0.064
1.935000;-0.0290;0.0419;0.0169;0.054
1.940000;-0.0334;0.0436;0.0575;0.080
1.945000;0.0212;0.0522;0.0932;0.109
1.954000;-0.0058;0.0748;0.1143;0.137
1.955000;-0.0065;0.1021;0.1162;0.155
1.959000;0.0026;0.1078;0.1086;0.153
1.964000;0.0050;0.1042;0.1153;0.155
1.970000;-0.0346;0.1054;0.0982;0.148
1.974000;-0.0519;0.0806;0.1002;0.139
1.981000;-0.0927;0.0439;0.0832;0.132
1.985000;-0.1048;0.0125;0.0355;0.111
1.989000;-0.1221;0.0029;-0.0450;0.130
1.994000;-0.1228;0.0124;-0.0490;0.133
1.998000;-0.1354;0.0150;-0.0719;0.154
2.004000;-0.1336;0.0154;-0.0829;0.158
2.008000;-0.1460;0.0205;-0.0249;0.150
2.015000;-0.1513;0.0091;-0.0292;0.154
2.018000;-0.1780;0.0240;0.0093;0.180
2.023000;-0.1954;0.0008;0.0285;0.197
2.028000;-0.1959;0.0182;0.0143;0.197
2.034000;-0.1841;0.0024;-0.0045;0.184
2.038000;-0.1597;-0.0154;-0.0090;0.161
2.043000;-0.1517;-0.0163;-0.0135;0.153
2.047000;-0.1865;-0.0476;-0.0299;0.195
2.052000;-0.1738;-0.0665;-0.0557;0.194
2.057000;-0.1922;-0.0968;-0.0624;0.224
2.062000;-0.1919;-0.0886;-0.0738;0.224
2.067000;-0.1730;-0.0872;-0.0258;0.195
2.072000;-0.1925;-0.1212;0.0051;0.228
2.077000;-0.1954;-0.1192;0.0713;0.240
2.082000;-0.1630;-0.1007;0.1085;0.220
2.087000;-0.1027;-0.0824;0.1169;0.176
2.092000;-0.0952;-0.0738;0.1111;0.164
2.097000;-0.0855;-0.1035;0.1006;0.168
2.101000;-0.0499;-0.1093;0.0570;0.133
2.106000;-0.0455;-0.1037;0.0351;0.119
2.111000;-0.0437;-0.1031;0.0396;0.119
2.116000;-0.0207;-0.1050;0.0512;0.119
2.121000;-0.0501;-0.1024;-0.0226;0.116
2.126000;-0.0579;-0.0858;-0.0531;0.116
2.132000;-0.0869;-0.0718;-0.0644;0.130
2.135000;-0.0891;-0.1008;-0.0945;0.164
2.141000;-0.0816;-0.0989;-0.1267;0.180
2.145000;-0.0645;-0.1114;-0.1562;0.202
2.155000;-0.0738;-0.1236;-0.1666;0.220
2.155000;-0.0810;-0.1002;-0.1673;0.211
2.160000;-0.0836;-0.0719;-0.2061;0.234
2.166000;-0.0888;-0.0294;-0.2493;0.266
2.170000;-0.0300;-0.0012;-0.2827;0.284
2.175000;0.0232;0.0104;-0.2993;0.300
2.180000;0.0780;0.0103;-0.3300;0.339
2.185000;0.1062;0.0320;-0.3724;0.389
2.189000;0.0730;0.0349;-0.4264;0.434
2.197000;0.0835;-0.0045;-0.3993;0.408
2.200000;0.0498;-0.0311;-0.4082;0.412
2.204000;0.0363;-0.0355;-0.3981;0.401
2.209000;-0.0164;-0.0319;-0.3645;0.366
2.216000;-0.0490;-0.0303;-0.3242;0.329
2.219000;-0.0832;-0.0612;-0.2653;0.285
2.224000;-0.1143;-0.0703;-0.2545;0.288
2.229000;-0.0972;-0.0695;-0.1963;0.230
2.246000;-0.0848;-0.0400;-0.1956;0.217
2.247000;-0.0721;-0.0272;-0.1972;0.212
2.248000;-0.0689;-0.0216;-0.1799;0.194
2.248000;-0.0584;-0.0252;-0.1154;0.132
2.254000;-0.0097;-0.0264;-0.0371;0.047
2.259000;0.0673;0.0033;0.0572;0.088
2.264000;0.0869;-0.0126;0.1151;0.145
2.268000;0.0660;0.0069;0.1346;0.150
2.273000;0.0330;-0.0430;0.1872;0.195
2.278000;0.0069;-0.0499;0.1873;0.194
2.283000;-0.0105;-0.0668;0.2254;0.235
2.288000;-0.0240;-0.0839;0.2490;0.264
2.293000;-0.0144;-0.0703;0.3033;0.312
2.298000;-0.0154;-0.0809;0.3288;0.339
2.303000;0.0113;-0.0277;0.3351;0.336
2.307000;0.0304;-0.0251;0.3248;0.327
2.312000;0.0326;-0.0015;0.3382;0.340
2.317000;0.0922;-0.0045;0.3230;0.336
2.322000;0.0944;0.0138;0.3341;0.347
2.327000;0.1087;-0.0138;0.3405;0.358
2.333000;0.1206;-0.0084;0.3565;0.376
2.337000;0.0921;-0.0083;0.3583;0.370
2.341000;0.0712;-0.0280;0.2980;0.308
2.347000;-0.0163;-0.0506;0.2953;0.300
2.361000;-0.0220;-0.0429;0.2474;0.252
2.362000;-0.0368;-0.0550;0.2068;0.217
2.363000;-0.0509;-0.0151;0.1735;0.181
2.366000;-0.0619;0.0002;0.1357;0.149
2.374000;-0.0553;0.0509;0.0932;0.120
2.376000;-0.0430;0.0772;0.0126;0.089
2.381000;-0.0470;0.0819;-0.0320;0.100
2.386000;-0.0386;0.0937;-0.0836;0.131
2.390000;-0.0274;0.1393;-0.1567;0.211
2.396000;-0.0091;0.1590;-0.2035;0.258
2.403000;-0.0126;0.1553;-0.2169;0.267
2.408000;-0.0285;0.1522;-0.2160;0.266
2.410000;-0.0283;0.1693;-0.3371;0.378
2.430000;0.0070;0.2088;-0.2599;0.333
2.431000;0.0152;0.1487;-0.0970;0.178
2.431000;0.0824;0.0894;-0.1327;0.180
2.432000;0.5715;0.1697;0.0894;0.603
2.435000;0.4766;0.2195;0.1653;0.550
2.439000;0.3482;0.2651;0.2529;0.505
2.444000;0.2250;0.2921;0.3045;0.478
2.450000;0.2079;0.3575;0.3893;0.568
2.454000;0.2182;0.3660;0.5313;0.681
2.459000;0.2408;0.3650;0.6898;0.817
2.465000;0.1868;0.3207;0.7884;0.871
2.469000;0.0990;0.2521;0.7698;0.816
2.474000;-0.0103;0.1011;0.7323;0.739
2.479000;-0.1955;-0.1466;0.7262;0.766
2.484000;-0.1552;-0.1329;0.7372;0.765
2.488000;-0.1285;-0.0730;0.7102;0.725
2.493000;-0.0719;-0.0123;0.7026;0.706
2.499000;-0.0572;0.0374;0.6761;0.680
2.503000;-0.0440;0.1098;0.6261;0.637
2.508000;-0.0253;0.1141;0.5596;0.572
2.513000;0.0031;0.1055;0.4337;0.446
2.517000;0.0578;0.1157;0.3869;0.408
2.523000;0.1221;0.1230;0.3331;0.376
2.528000;0.1548;0.0943;0.2866;0.339
2.539000;0.1772;0.0967;0.2020;0.286
2.540000;0.1747;0.0633;0.1390;0.232
2.543000;0.1763;0.1136;0.0689;0.221
2.551000;0.1770;0.0876;-0.0394;0.201
2.552000;0.1795;0.0620;-0.1188;0.224
2.557000;0.1718;0.0607;-0.1839;0.259
2.562000;0.1566;0.0335;-0.2561;0.302
2.568000;0.1314;-0.0098;-0.2495;0.282
2.572000;0.1078;-0.0287;-0.2573;0.280
2.577000;0.0781;-0.0732;-0.2891;0.308
2.582000;0.0663;-0.1337;-0.3043;0.339
2.587000;0.0528;-0.1410;-0.2982;0.334
2.592000;0.0521;-0.1999;-0.2874;0.354
2.596000;0.0381;-0.1913;-0.2649;0.329
2.601000;0.0637;-0.2035;-0.2330;0.316
2.606000;0.0412;-0.1982;-0.2061;0.289
2.611000;0.0092;-0.1710;-0.1745;0.245
2.617000;-0.0462;-0.1748;-0.1550;0.238
2.624000;-0.0722;-0.1977;-0.1474;0.257
2.626000;-0.1355;-0.1942;-0.1851;0.301
2.630000;-0.1788;-0.2145;-0.2061;0.347
2.641000;-0.2551;-0.1843;-0.2654;0.412
2.642000;-0.3284;-0.1971;-0.2576;0.462
2.645000;-0.3492;-0.1859;-0.2619;0.474
2.650000;-0.3634;-0.1580;-0.2541;0.471
2.655000;-0.4021;-0.1517;-0.2345;0.490
2.659000;-0.3940;-0.1458;-0.2411;0.484
2.666000;-0.4155;-0.1403;-0.2907;0.526
2.670000;-0.4401;-0.0922;-0.3329;0.560
2.675000;-0.4368;-0.0878;-0.3320;0.556
2.679000;-0.4194;-0.0456;-0.3190;0.529
2.684000;-0.4403;-0.0040;-0.3084;0.538
2.689000;-0.4661;0.0300;-0.3096;0.560
2.695000;-0.4990;0.0801;-0.3299;0.604
2.700000;-0.5031;0.1060;-0.3405;0.617
2.704000;-0.5286;0.0981;-0.3988;0.669
2.709000;-0.5180;0.1142;-0.4713;0.710
2.713000;-0.5288;0.1041;-0.5127;0.744
2.719000;-0.4965;0.1301;-0.5421;0.747
2.725000;-0.4930;0.1133;-0.5238;0.728
2.729000;-0.4610;0.1140;-0.4936;0.685
2.745000;-0.4463;0.1223;-0.4827;0.669
2.746000;-0.4392;0.1170;-0.4075;0.610
2.746000;-0.4472;0.1196;-0.3492;0.580
2.749000;-0.4174;0.1492;-0.2960;0.533
2.755000;-0.4096;0.1461;-0.2477;0.500
2.757000;-0.3802;0.1890;-0.1591;0.453
2.763000;-0.3508;0.1797;-0.1184;0.412
2.769000;-0.3282;0.1922;-0.0587;0.385
2.772000;-0.2809;0.1834;0.0033;0.336
2.778000;-0.2349;0.1580;0.0652;0.290
2.783000;-0.2043;0.1040;0.1150;0.257
2.787000;-0.1870;0.0931;0.1504;0.257
2.792000;-0.1759;0.0604;0.1500;0.239
2.797000;-0.1424;0.0253;0.1783;0.230
2.802000;-0.1228;-0.0076;0.1922;0.228
2.808000;-0.0979;-0.0121;0.2110;0.233
2.817000;-0.0514;-0.0691;0.2464;0.261
2.821000;-0.0741;-0.1188;0.2460;0.283
2.822000;-0.0899;-0.1397;0.3172;0.358
2.826000;-0.1273;-0.1869;0.3860;0.447
2.831000;-0.1073;-0.1886;0.3877;0.444
2.852000;-0.0967;-0.1859;0.3728;0.428
2.853000;-0.0806;-0.1906;0.3412;0.399
2.853000;-0.0828;-0.2150;0.2668;0.353
2.854000;-0.1195;-0.2110;0.2165;0.325
2.856000;-0.1211;-0.2553;0.1328;0.312
2.860000;-0.1381;-0.2450;0.0399;0.284
2.866000;-0.1326;-0.2446;-0.0696;0.287
2.870000;-0.1239;-0.2275;-0.1981;0.326
2.875000;-0.1268;-0.1959;-0.3025;0.382
2.880000;-0.1174;-0.1472;-0.4044;0.446
2.886000;-0.0985;-0.1197;-0.4537;0.479
2.890000;-0.0417;-0.0869;-0.5317;0.540
2.894000;0.0001;-0.0678;-0.5595;0.564
2.902000;0.0340;-0.0289;-0.5851;0.587
2.904000;0.1120;0.0036;-0.6084;0.619
2.909000;0.1912;-0.0158;-0.5983;0.628
2.915000;0.2833;-0.0010;-0.5287;0.600
2.919000;0.3597;0.0242;-0.4689;0.592
2.924000;0.4204;0.0884;-0.3903;0.580
2.929000;0.4535;0.1054;-0.2999;0.554
2.947000;0.4664;0.1420;-0.2050;0.529
2.947000;0.4809;0.1742;-0.1008;0.521
2.948000;0.4849;0.1801;0.0009;0.517
2.949000;0.5172;0.2053;0.0785;0.562
2.957000;0.5563;0.2017;0.1679;0.615
2.958000;0.5644;0.2005;0.1784;0.625
2.964000;0.5558;0.1893;0.2201;0.627
2.968000;0.5452;0.1681;0.2450;0.621
2.973000;0.5659;0.1535;0.2868;0.653
2.978000;0.5439;0.1551;0.3166;0.648
2.983000;0.5197;0.1204;0.3298;0.627
2.988000;0.5219;0.1328;0.3527;0.644
2.993000;0.5338;0.1539;0.3374;0.650
2.997000;0.5003;0.1790;0.2889;0.605
3.003000;0.5053;0.2104;0.2239;0.591
3.007000;0.5250;0.2433;0.1926;0.610
3.013000;0.5141;0.2804;0.1160;0.597
3.019000;0.5514;0.3337;0.0515;0.647
3.022000;0.5914;0.3653;0.0159;0.695
3.027000;0.6170;0.4015;-0.0101;0.736
3.032000;0.6258;0.4450;-0.0170;0.768
3.059000;0.6341;0.4623;-0.0431;0.786
3.059000;0.6588;0.4991;-0.0070;0.826
3.060000;0.6662;0.5267;-0.0045;0.849
3.061000;0.6809;0.5618;0.0266;0.883
3.062000;0.6478;0.5494;0.0289;0.850
3.062000;0.6101;0.5467;0.0288;0.820
3.066000;0.5442;0.5298;0.0549;0.761
3.071000;0.4907;0.5105;0.1121;0.717
3.077000;0.4446;0.4814;-0.0147;0.655
3.082000;0.4061;0.4210;0.2434;0.634
3.086000;0.3606;0.4009;0.1189;0.552
3.091000;0.2819;0.3568;0.1714;0.486
3.096000;0.2273;0.3242;0.2478;0.467
3.101000;0.1754;0.2769;0.2717;0.426
3.106000;0.1713;0.2410;0.2837;0.410
3.110000;0.1553;0.2043;0.2982;0.393
3.115000;0.1179;0.1739;0.2746;0.346
3.120000;0.1241;0.0879;0.2560;0.298
3.125000;0.1046;0.1016;0.2136;0.259
3.130000;0.0764;0.0548;0.1595;0.185
3.150000;0.0565;0.0362;0.0339;0.075
3.151000;0.0521;0.0292;-0.0747;0.096
3.151000;0.0058;0.0390;-0.1833;0.187
3.151000;-0.0467;0.0201;-0.2677;0.273
3.154000;-0.0841;0.0472;-0.3737;0.386
3.159000;-0.0687;0.0557;-0.4486;0.457
3.165000;-0.0651;0.0795;-0.4853;0.496
3.169000;-0.0310;0.0637;-0.4911;0.496
3.174000;0.0026;0.0778;-0.5306;0.536
3.179000;-0.0122;0.0476;-0.5057;0.508
3.184000;0.0177;0.0544;-0.4907;0.494
3.189000;0.0256;0.0434;-0.4400;0.443
3.194000;0.0233;0.0380;-0.4303;0.433
3.199000;0.0132;0.0284;-0.3633;0.365
3.205000;0.0124;-0.0019;-0.3037;0.304
3.208000;-0.0628;0.0018;-0.2132;0.222
3.214000;-0.0975;-0.0373;-0.1468;0.180
3.219000;-0.1222;-0.0619;-0.0852;0.161
3.226000;-0.1484;-0.0866;0.0097;0.172
3.228000;-0.1619;-0.1140;0.0687;0.210
3.250000;-0.1794;-0.1345;0.0752;0.237
3.250000;-0.2200;-0.1484;0.1009;0.284
3.251000;-0.2144;-0.1867;0.0692;0.293
3.251000;-0.2225;-0.1778;0.0617;0.291
3.252000;-0.2681;-0.1695;0.0137;0.317
3.258000;-0.2174;-0.1615;-0.0342;0.273
3.262000;-0.2143;-0.1419;-0.0940;0.274
3.268000;-0.1633;-0.1201;-0.1082;0.230
3.272000;-0.1263;-0.1056;-0.1391;0.216
3.277000;-0.1036;-0.0866;-0.1914;0.234
3.282000;-0.0854;-0.0649;-0.1959;0.223
3.287000;-0.0576;-0.0314;-0.2099;0.220
3.292000;-0.0486;-0.0214;-0.2120;0.219
3.296000;-0.0227;-0.0065;-0.2189;0.220
3.302000;-0.0131;0.0279;-0.1781;0.181
3.307000;0.0112;0.0506;-0.1612;0.169
3.311000;0.0028;0.0400;-0.1851;0.189
3.316000;0.0093;0.0534;-0.1969;0.204
3.321000;-0.0044;0.0573;-0.1968;0.205
3.326000;0.0550;0.0228;-0.1846;0.194
3.331000;0.1134;0.0123;-0.1605;0.197
3.353000;0.1250;0.0182;-0.2080;0.243
3.354000;0.0804;0.0071;-0.3772;0.386
3.354000;0.1257;0.0029;-0.5055;0.521
3.354000;0.2372;0.0392;-0.5068;0.561
3.356000;0.3969;0.0230;-0.4865;0.628
3.361000;0.5846;-0.0172;-0.4520;0.739
3.366000;0.7320;-0.0712;-0.4557;0.865
3.371000;0.8266;-0.1060;-0.4596;0.952
3.375000;0.9754;-0.1212;-0.4588;1.085
3.380000;1.0137;-0.1097;-0.5131;1.141
3.385000;1.0423;-0.0667;-0.5126;1.163
3.389000;1.0405;-0.0066;-0.5337;1.169
3.395000;1.0474;0.0493;-0.5502;1.184
3.399000;1.0302;0.1199;-0.5500;1.174
3.405000;0.9848;0.1696;-0.5212;1.127
3.410000;0.9646;0.2149;-0.5355;1.124
3.415000;0.9028;0.2606;-0.5929;1.111
3.421000;0.8479;0.2830;-0.5785;1.065
3.427000;0.8478;0.3205;-0.5809;1.077
3.428000;0.8332;0.3276;-0.6024;1.079
3.470000;0.8011;0.3569;-0.6144;1.071
3.471000;0.7368;0.3729;-0.6097;1.026
3.471000;0.7158;0.3536;-0.5788;0.986
3.471000;0.6710;0.3544;-0.5505;0.938
3.472000;0.5968;0.3775;-0.5008;0.866
3.472000;0.5623;0.3726;-0.4370;0.804
3.472000;0.5598;0.3420;-0.3352;0.737
3.472000;0.5129;0.2808;-0.2623;0.641
3.473000;0.4000;0.1362;-0.1991;0.467
3.478000;0.1952;-0.1202;-0.2150;0.314
3.483000;0.2020;-0.1946;-0.2787;0.395
3.487000;0.2930;-0.0315;-0.2063;0.360
3.492000;0.2667;0.0985;-0.1199;0.309
3.498000;0.0664;0.2817;-0.0362;0.292
3.503000;-0.1994;0.4675;-0.0317;0.509
3.507000;-0.3336;0.5028;0.0255;0.604
3.512000;-0.2855;0.5357;0.1184;0.618
3.517000;-0.1986;0.4773;0.2090;0.558
3.522000;-0.0972;0.3895;0.2351;0.465
3.527000;-0.0144;0.2629;0.2471;0.361
3.532000;0.0329;0.2122;0.2496;0.329
3.537000;0.0784;0.1465;0.2188;0.275
3.545000;0.0237;0.1253;0.2122;0.248
3.546000;-0.0162;0.1440;0.1890;0.238
3.570000;-0.0803;0.1712;0.1970;0.273
3.571000;-0.1427;0.2190;0.2147;0.338
3.571000;-0.2228;0.2302;0.2181;0.388
3.571000;-0.2827;0.2622;0.2621;0.466
3.572000;-0.3443;0.2314;0.3395;0.536
3.576000;-0.3984;0.2025;0.4239;0.616
3.581000;-0.4330;0.1781;0.5153;0.696
3.586000;-0.4289;0.1604;0.6065;0.760
3.591000;-0.4674;0.1325;0.6713;0.829
3.596000;-0.4597;0.1158;0.7719;0.906
3.600000;-0.4795;0.1125;0.8700;1.000
3.606000;-0.4812;0.1226;0.9012;1.029
3.610000;-0.4928;0.1578;0.9325;1.066
3.615000;-0.5446;0.1537;0.9735;1.126
3.619000;-0.5548;0.1986;1.0052;1.165
3.625000;-0.5664;0.2065;0.9940;1.163
3.629000;-0.5817;0.2015;0.9472;1.130
3.637000;-0.6554;0.2244;0.8863;1.125
3.643000;-0.6631;0.2443;0.8209;1.083
3.645000;-0.6648;0.2539;0.7604;1.041
3.650000;-0.6560;0.2727;0.6835;0.986
3.663000;-0.6822;0.2697;0.6402;0.974
3.664000;-0.6786;0.2713;0.5946;0.942
3.664000;-0.6860;0.2802;0.4990;0.893
3.669000;-0.6805;0.2556;0.4250;0.842
3.674000;-0.7003;0.2863;0.3249;0.823
3.679000;-0.6880;0.3001;0.2560;0.793
3.684000;-0.6748;0.3071;0.2040;0.769
3.690000;-0.6343;0.2974;0.1138;0.710
3.693000;-0.5766;0.3166;0.0811;0.663
3.698000;-0.5279;0.3169;0.0173;0.616
3.705000;-0.4743;0.2936;-0.0296;0.559
3.708000;-0.4325;0.3159;-0.0574;0.539
3.713000;-0.4198;0.3122;-0.1426;0.542
3.720000;-0.3977;0.3131;-0.2109;0.548
3.723000;-0.4022;0.2854;-0.2719;0.563
3.727000;-0.3879;0.2885;-0.3449;0.594
3.732000;-0.4121;0.3036;-0.4081;0.655
3.758000;-0.4415;0.2849;-0.4952;0.722
3.758000;-0.4594;0.2992;-0.2332;0.596
3.759000;-0.5016;0.2728;-0.7411;0.936
3.759000;-0.5252;0.2489;-0.6820;0.896
3.759000;-0.5568;0.2322;-0.6230;0.867
3.762000;-0.5847;0.2325;-0.7052;0.945
3.767000;-0.5850;0.2069;-0.7397;0.966
3.771000;-0.6032;0.1726;-0.7743;0.997
3.776000;-0.5772;0.1436;-0.7636;0.968
3.781000;-0.6006;0.0868;-0.7722;0.982
3.786000;-0.6277;0.0790;-0.7118;0.952
3.792000;-0.6564;0.0700;-0.6900;0.955
3.796000;-0.6987;0.0647;-0.6542;0.959
3.801000;-0.7281;0.0466;-0.5781;0.931
3.806000;-0.7830;0.0375;-0.5264;0.944
3.811000;-0.8129;-0.0182;-0.4486;0.929
3.817000;-0.8390;0.0114;-0.3785;0.921
3.823000;-0.8371;-0.0103;-0.2632;0.878
3.825000;-0.8547;-0.0213;-0.1578;0.869
3.830000;-0.8578;-0.0290;-0.0789;0.862
3.859000;-0.8608;-0.0859;0.0165;0.865
3.860000;-0.8675;-0.0899;0.1310;0.882
3.860000;-0.8875;-0.0863;0.2358;0.922
3.860000;-0.8802;-0.0613;0.3358;0.944
3.860000;-0.9029;-0.0387;0.4070;0.991
3.861000;-0.8671;0.0120;0.4760;0.989
3.865000;-0.8401;0.0261;0.5091;0.983
3.871000;-0.7882;0.0610;0.5520;0.964
3.877000;-0.7356;0.1070;0.6164;0.966
3.879000;-0.6968;0.0943;0.6930;0.987
3.885000;-0.6386;0.1402;0.7314;0.981
3.891000;-0.5275;0.1849;0.8034;0.979
3.895000;-0.4738;0.2327;0.8468;0.998
3.899000;-0.3937;0.2862;0.8737;1.000
3.905000;-0.3013;0.3595;0.8865;1.003
3.909000;-0.2634;0.4119;0.8636;0.992
3.914000;-0.2176;0.4721;0.8076;0.960
3.922000;-0.1753;0.5091;0.7161;0.896
3.924000;-0.0885;0.5399;0.6178;0.825
3.928000;-0.0672;0.5576;0.4815;0.740
3.933000;-0.0393;0.6056;0.3624;0.707
3.963000;-0.0458;0.6196;0.2052;0.654
3.964000;-0.0961;0.6383;0.0722;0.650
3.964000;-0.1097;0.6738;-0.0438;0.684
3.965000;-0.1513;0.7218;-0.2099;0.767
3.965000;-0.1902;0.8014;-0.3377;0.890
3.966000;-0.1980;0.8483;-0.4750;0.992
3.968000;-0.1843;0.8961;-0.5477;1.066
3.974000;-0.1230;0.9139;-0.6372;1.121
3.980000;-0.0694;0.9138;-0.6575;1.128
3.983000;0.0387;0.9221;-0.6493;1.128
3.987000;0.1028;0.9267;-0.5911;1.104
3.992000;0.1919;0.9232;-0.5117;1.073
3.997000;0.2674;0.9086;-0.3753;1.019
4.002000;0.3364;0.8761;-0.2655;0.975
4.006000;0.3510;0.8850;-0.1465;0.963
4.011000;0.3788;0.9016;-0.0469;0.979
4.016000;0.3462;0.8943;0.0191;0.959
4.022000;0.3258;0.9108;0.0540;0.969
4.026000;0.2802;0.9436;0.0172;0.984
4.031000;0.2221;0.9756;-0.0049;1.001
4.051000;0.1520;0.9514;-0.1129;0.970
4.051000;0.1037;0.9382;-0.1679;0.959
4.051000;0.0936;0.9240;-0.2560;0.963
4.052000;0.0850;0.8995;-0.3606;0.973
4.055000;0.0484;0.8843;-0.4864;1.010
4.061000;0.0407;0.8809;-0.6097;1.072
4.066000;0.0299;0.8918;-0.6946;1.131
4.073000;-0.0035;0.9102;-0.7532;1.181
4.075000;0.0213;0.9386;-0.7976;1.232
4.081000;-0.0032;0.9961;-0.8492;1.309
4.085000;0.0115;1.0278;-0.8912;1.360
4.090000;-0.0036;1.0769;-0.9048;1.407
4.095000;-0.0051;1.1193;-0.9279;1.454
4.099000;-0.0069;1.1167;-0.9488;1.465
4.105000;-0.0136;1.1673;-0.9123;1.482
4.110000;-0.0344;1.1777;-0.9070;1.487
4.115000;-0.0502;1.1647;-0.8731;1.456
4.121000;-0.0849;1.1736;-0.8106;1.429
4.125000;-0.0765;1.1590;-0.7889;1.404
4.129000;-0.0970;1.1522;-0.8031;1.408
4.134000;-0.1580;1.1437;-0.7744;1.390
4.161000;-0.2168;1.1335;-0.7339;1.368
4.161000;-0.2709;1.1550;-0.6887;1.372
4.162000;-0.3111;1.1675;-0.6532;1.374
4.162000;-0.3757;1.1688;-0.5964;1.365
4.162000;-0.4193;1.1895;-0.5254;1.366
4.164000;-0.4493;1.2032;-0.4498;1.361
4.168000;-0.4561;1.2004;-0.3647;1.335
4.173000;-0.4585;1.1806;-0.2726;1.296
4.179000;-0.4134;1.1417;-0.2140;1.233
4.184000;-0.4231;1.1263;-0.1578;1.213
4.191000;-0.3850;1.0866;-0.1040;1.158
4.193000;-0.3825;1.0753;-0.0263;1.142
4.198000;-0.4060;1.0802;-0.0108;1.154
4.202000;-0.4195;1.0702;0.0431;1.150
4.207000;-0.4683;1.0645;0.0420;1.164
4.212000;-0.5334;1.0677;0.0291;1.194
4.218000;-0.5524;1.0753;-0.0148;1.209
4.223000;-0.5805;1.0751;-0.0848;1.225
4.227000;-0.6272;1.0913;-0.0878;1.262
4.232000;-0.6159;1.1047;-0.0740;1.267
4.255000;-0.6120;1.1250;-0.1031;1.285
4.255000;-0.6011;1.1378;-0.1107;1.292
4.255000;-0.5764;1.1551;-0.1207;1.297
4.256000;-0.5592;1.2028;-0.1520;1.335
4.256000;-0.5112;1.2215;-0.1977;1.339
4.262000;-0.4682;1.2444;-0.2122;1.346
4.267000;-0.4063;1.2646;-0.2505;1.352
4.271000;-0.3426;1.2795;-0.3079;1.360
4.276000;-0.2911;1.3492;-0.3102;1.415
4.281000;-0.2427;1.3711;-0.3126;1.427
4.286000;-0.1688;1.4145;-0.2600;1.448
4.292000;-0.0931;1.4462;-0.2242;1.466
4.296000;-0.0469;1.4873;-0.2316;1.506
4.301000;0.0229;1.4614;-0.2055;1.476
4.307000;0.0422;1.4834;-0.1603;1.493
4.310000;0.0855;1.5004;-0.1104;1.507
4.315000;0.1096;1.4957;-0.0867;1.502
4.320000;0.1266;1.4712;-0.0320;1.477
4.340000;0.1096;1.4580;0.0538;1.463
4.340000;0.0659;1.4105;0.0750;1.414
4.341000;0.0362;1.4072;0.1275;1.413
4.341000;0.0204;1.3695;0.1489;1.378
4.345000;-0.0244;1.3358;0.1512;1.345
4.350000;-0.0337;1.2796;0.1800;1.293
4.363000;-0.0671;1.2990;0.2136;1.318
4.364000;-0.1221;1.2891;0.2090;1.312
4.364000;-0.1581;1.2733;0.2261;1.303
4.369000;-0.2157;1.2258;0.2528;1.270
4.374000;-0.1755;1.2111;0.3035;1.261
4.379000;-0.1834;1.1937;0.3159;1.248
4.385000;-0.1225;1.1710;0.3451;1.227
4.391000;-0.1239;1.1408;0.4078;1.218
4.393000;-0.0967;1.1149;0.4250;1.197
4.399000;-0.0818;1.0957;0.4926;1.204
4.405000;-0.0579;1.0568;0.6222;1.228
4.408000;0.0225;1.1012;0.5630;1.237
4.414000;0.0154;1.0490;1.0130;1.458
4.419000;0.0381;0.9768;1.1877;1.538
4.424000;0.0917;0.9608;1.2381;1.570
4.428000;0.1331;0.9198;1.4367;1.711
4.433000;0.1477;0.8368;1.5899;1.803
4.455000;0.1982;0.8028;1.7742;1.957
4.456000;0.2155;0.7841;1.9299;2.094
4.457000;0.2423;0.7591;2.0929;2.239
4.457000;0.2821;0.7115;2.1747;2.305
4.457000;0.3040;0.6482;2.2305;2.343
4.463000;0.3526;0.5795;2.2650;2.364
4.468000;0.3783;0.4263;2.2662;2.337
4.472000;0.4417;0.2950;2.2844;2.345
4.477000;0.4500;0.1543;2.2715;2.321
4.482000;0.4108;0.0266;2.2443;2.282
4.488000;0.3582;-0.0185;2.1932;2.222
4.492000;0.2374;-0.0335;2.0821;2.096
4.497000;0.1325;-0.0326;1.9877;1.992
4.502000;0.0343;-0.0231;1.8812;1.882
4.509000;0.0142;-0.0193;1.7650;1.765
4.511000;0.0025;-0.0904;1.6462;1.649
4.516000;0.0532;-0.1583;1.5227;1.532
4.524000;0.1203;-0.2683;1.4039;1.434
4.526000;0.2411;-0.3706;1.3115;1.384
4.532000;0.3788;-0.4655;1.1858;1.329
4.536000;0.4562;-0.5295;1.1129;1.314
4.553000;0.5202;-0.5532;1.0426;1.290
4.554000;0.5489;-0.5322;0.9486;1.218
4.555000;0.5490;-0.5191;0.8884;1.166
4.556000;0.4866;-0.4497;0.8477;1.076
4.560000;0.4409;-0.3980;0.7953;0.993
4.566000;0.3853;-0.3595;0.7863;0.947
4.570000;0.3061;-0.3482;0.7465;0.879
4.575000;0.2849;-0.3262;0.6832;0.809
4.580000;0.2053;-0.3598;0.6153;0.742
4.585000;0.2137;-0.3851;0.5121;0.675
4.590000;0.1987;-0.4897;0.4116;0.670
4.595000;0.1751;-0.5998;0.2779;0.684
4.598000;0.1672;-0.7121;0.1516;0.747
4.605000;0.1442;-0.7836;-0.0079;0.797
4.609000;0.0942;-0.8543;-0.1817;0.878
4.615000;0.0245;-0.9168;-0.3411;0.979
4.619000;-0.0288;-0.9539;-0.5270;1.090
4.624000;-0.0561;-0.9607;-0.6962;1.188
4.629000;-0.0239;-0.9751;-0.8489;1.293
4.634000;0.0053;-1.0210;-0.9350;1.384
4.640000;0.0553;-1.0741;-1.0359;1.493
4.643000;0.1279;-1.1295;-1.0918;1.576
4.648000;0.1867;-1.1636;-1.1219;1.627
4.654000;0.2669;-1.2145;-1.0975;1.659
4.673000;0.3130;-1.2297;-1.0497;1.647
4.673000;0.3391;-1.2525;-0.9881;1.631
4.674000;0.3784;-1.2327;-0.8576;1.549
4.674000;0.3663;-1.1973;-0.7325;1.451
4.678000;0.3124;-1.1632;-0.6411;1.364
4.683000;0.2531;-1.1071;-0.5859;1.278
4.688000;0.1604;-1.0175;-0.5713;1.178
4.693000;0.1304;-0.9571;-0.5734;1.123
4.697000;0.0655;-0.9477;-0.6160;1.132
4.703000;0.0450;-0.9057;-0.6942;1.142
4.708000;0.0284;-0.8599;-0.7554;1.145
4.713000;0.0089;-0.7988;-0.8377;1.158
4.718000;-0.0044;-0.7341;-0.9842;1.228
4.724000;0.0027;-0.6659;-1.1303;1.312
4.731000;0.0132;-0.5626;-1.2855;1.403
4.731000;0.0722;-0.4773;-1.4619;1.540
4.737000;0.1411;-0.3734;-1.6426;1.690
4.755000;0.2533;-0.3131;-1.7561;1.802
4.756000;0.3006;-0.2312;-1.8432;1.882
4.756000;0.3546;-0.1708;-1.9349;1.975
4.757000;0.3983;-0.1338;-1.9694;2.014
4.761000;0.4006;-0.0628;-1.9775;2.019
4.766000;0.3877;-0.0149;-1.9812;2.019
4.771000;0.3598;0.0604;-1.9396;1.974
4.777000;0.2738;0.1441;-1.9080;1.933
4.780000;0.1900;0.1691;-1.8767;1.894
4.786000;0.1063;0.1977;-1.8457;1.859
4.790000;0.0181;0.1984;-1.8269;1.838
4.796000;-0.0697;0.2357;-1.7533;1.770
4.800000;-0.1234;0.2352;-1.7254;1.746
4.806000;-0.1767;0.1991;-1.7191;1.740
4.812000;-0.2344;0.1610;-1.6889;1.713
4.815000;-0.2751;0.1591;-1.6110;1.642
4.820000;-0.3305;0.1691;-1.5691;1.612
4.825000;-0.3288;0.1914;-1.5249;1.572
4.830000;-0.3439;0.2451;-1.5334;1.591
4.835000;-0.3162;0.2918;-1.4775;1.539
4.842000;-0.2936;0.3030;-1.3762;1.439
4.844000;-0.2814;0.3670;-1.2919;1.372
4.849000;-0.2579;0.4623;-1.2173;1.327
4.854000;-0.2282;0.5170;-1.1047;1.241
4.883000;-0.1827;0.5885;-0.9922;1.168
4.884000;-0.0833;0.6571;-0.9347;1.146
4.884000;0.0228;0.7447;-0.8701;1.145
4.884000;0.1334;0.7840;-0.8007;1.128
4.885000;0.2080;0.8227;-0.7695;1.145
4.885000;0.3138;0.8749;-0.7262;1.180
4.888000;0.3721;0.9002;-0.6541;1.173
4.893000;0.4426;0.9249;-0.5820;1.179
4.898000;0.5254;0.9396;-0.4932;1.184
4.903000;0.5578;0.9373;-0.3805;1.155
4.908000;0.5710;0.9346;-0.3180;1.140
4.913000;0.5672;0.9482;-0.2890;1.142
4.917000;0.5273;0.9303;-0.2599;1.100
4.926000;0.4708;0.9192;-0.3168;1.080
4.934000;0.3715;0.9532;-0.3472;1.080
4.934000;0.2823;0.9417;-0.4015;1.062
4.937000;0.1792;0.9970;-0.4222;1.097
4.964000;0.1264;1.0235;-0.4812;1.138
4.965000;0.1074;1.0812;-0.4444;1.174
4.965000;0.1099;1.1054;-0.4603;1.203
4.966000;0.1624;1.1298;-0.4333;1.221
4.966000;0.2356;1.1445;-0.3608;1.223
4.968000;0.3579;1.2262;-0.2502;1.302
4.971000;0.4693;1.2933;-0.1876;1.389
4.976000;0.5865;1.3718;-0.1321;1.498
4.982000;0.6883;1.4611;-0.1123;1.619
4.986000;0.7776;1.5397;-0.1018;1.728
4.991000;0.8811;1.6075;-0.0959;1.836
4.996000;0.9992;1.6954;-0.0609;1.969
5.001000;1.0462;1.7797;-0.0042;2.064
5.008000;1.1034;1.8631;0.0645;2.166
5.011000;1.1300;1.9078;0.1047;2.220
5.016000;1.1498;1.9572;0.1591;2.275
5.021000;1.2148;1.9685;0.2493;2.327
5.026000;1.2742;1.9252;0.3345;2.333
5.034000;1.3417;1.8687;0.4647;2.347
5.036000;1.3927;1.7653;0.6519;2.341
5.046000;1.4910;1.6538;0.8838;2.396
5.047000;1.5670;1.5171;1.1319;2.457
5.051000;1.6566;1.3841;1.4152;2.581
5.055000;1.7195;1.2830;1.6956;2.735
5.060000;1.8165;1.1681;1.9421;2.904
5.065000;1.8224;1.0318;2.1501;3.001
5.069000;1.7912;0.9070;2.2982;3.052
5.075000;1.6525;0.7242;2.5612;3.133
5.079000;1.4958;0.6103;2.6137;3.073
5.084000;1.2859;0.4878;2.5494;2.897
5.090000;1.0035;0.3280;2.6769;2.878
5.095000;0.7341;0.2241;2.6254;2.735
5.099000;0.4796;0.1376;2.5075;2.557
5.104000;0.2516;0.1090;2.3282;2.344
5.109000;0.0717;0.0426;2.1305;2.132
5.116000;-0.1005;0.0794;1.8046;1.809
5.121000;-0.2554;0.1095;1.4821;1.508
5.124000;-0.3541;0.1471;1.1104;1.175
5.129000;-0.4331;0.1856;0.7659;0.899
5.134000;-0.4875;0.2487;0.4393;0.702
5.139000;-0.4544;0.3156;0.2018;0.589
5.144000;-0.3446;0.2957;-0.0422;0.456
5.149000;-0.2690;0.2687;-0.2595;0.460
5.153000;-0.1712;0.1825;-0.3308;0.415
5.179000;-0.0024;0.1025;-0.3737;0.387
5.180000;0.1170;0.0290;-0.3787;0.397
5.180000;0.2147;-0.0469;-0.3773;0.437
5.181000;0.2571;-0.1033;-0.3410;0.439
5.181000;0.2537;-0.1422;-0.3249;0.436
5.182000;0.2527;-0.1827;-0.2524;0.401
5.187000;0.2000;-0.2605;-0.2075;0.388
5.193000;0.0821;-0.3112;-0.1181;0.343
5.197000;-0.0831;-0.4684;-0.0180;0.476
5.203000;-0.2754;-0.5983;0.0882;0.665
5.207000;-0.4795;-0.7514;0.1600;0.906
5.212000;-0.6900;-0.8679;0.2476;1.136
5.217000;-0.9643;-0.9343;0.2675;1.369
5.222000;-1.1035;-0.9387;0.2678;1.473
5.228000;-1.2472;-0.9680;0.1459;1.585
5.231000;-1.4066;-1.0437;0.0716;1.753
5.237000;-1.4979;-1.1447;0.0499;1.886
5.242000;-1.4982;-1.2306;0.0472;1.939
5.246000;-1.5023;-1.2824;0.0038;1.975
5.250000;-1.4520;-1.3094;-0.0182;1.955
5.256000;-1.3679;-1.3093;-0.0333;1.894
5.277000;-1.2416;-1.2606;0.0040;1.769
5.278000;-1.1070;-1.2086;0.0792;1.641
5.278000;-0.9284;-1.1461;0.2043;1.489
5.279000;-0.7746;-1.0926;0.3720;1.390
5.282000;-0.5856;-1.0646;0.5680;1.341
5.285000;-0.4199;-1.0319;0.6970;1.314
5.291000;-0.3167;-1.0257;0.7805;1.327
5.296000;-0.2692;-1.0730;0.8285;1.382
5.300000;-0.2595;-1.1193;0.8027;1.402
5.305000;-0.3196;-1.2035;0.7179;1.437
5.312000;-0.3436;-1.3017;0.5622;1.459
5.315000;-0.4700;-1.3711;0.3667;1.495
5.319000;-0.5866;-1.4571;0.1528;1.578
5.326000;-0.7132;-1.5188;-0.1557;1.685
5.329000;-0.8168;-1.5443;-0.4752;1.811
5.334000;-0.9342;-1.5741;-0.8154;2.004
5.339000;-0.9757;-1.6080;-1.1426;2.201
5.347000;-1.0302;-1.5954;-1.4166;2.369
5.349000;-1.0681;-1.5694;-1.6540;2.518
5.354000;-1.0474;-1.5155;-1.8337;2.599
5.359000;-1.0097;-1.3856;-1.9341;2.585
5.364000;-0.9533;-1.2249;-2.0082;2.538
5.368000;-0.8430;-1.0739;-2.0034;2.424
5.373000;-0.7455;-0.8970;-1.9413;2.265
5.378000;-0.5504;-0.7442;-1.8817;2.097
5.383000;-0.3717;-0.6111;-1.8125;1.949
5.389000;-0.1820;-0.5120;-1.7793;1.860
5.393000;-0.0186;-0.4570;-1.7028;1.763
5.398000;0.1314;-0.4122;-1.6645;1.720
5.403000;0.2277;-0.3491;-1.6189;1.672
5.409000;0.2918;-0.2892;-1.5922;1.644
5.412000;0.3358;-0.2375;-1.5939;1.646
5.418000;0.3239;-0.1507;-1.6600;1.698
5.423000;0.3113;-0.1005;-1.7425;1.773
5.427000;0.2640;-0.0722;-1.8392;1.859
5.432000;0.2322;-0.0010;-1.9476;1.961
5.437000;0.1771;0.0419;-2.0463;2.054
5.444000;0.0651;0.0948;-2.1690;2.172
5.447000;0.0149;0.0986;-2.2057;2.208
5.452000;-0.0553;0.1063;-2.2379;2.241
5.457000;-0.0939;0.0990;-2.1894;2.194
5.479000;-0.1587;0.0891;-2.1463;2.154
5.479000;-0.2002;0.0913;-2.0633;2.075
5.480000;-0.2475;0.1083;-1.9168;1.936
5.480000;-0.2744;0.0970;-1.7234;1.748
5.481000;-0.3001;0.0837;-1.4306;1.464
5.486000;-0.3339;0.0562;-1.0864;1.138
5.492000;-0.3568;0.0670;-0.7193;0.806
5.496000;-0.3830;0.0891;-0.3842;0.550
5.501000;-0.4068;0.1608;0.0480;0.440
5.505000;-0.4395;0.2021;0.3887;0.621
5.510000;-0.5044;0.2825;0.7385;0.938
5.515000;-0.5761;0.3745;1.0163;1.227
5.520000;-0.6777;0.4683;1.2486;1.496
5.526000;-0.7385;0.5434;1.3903;1.665
5.530000;-0.7936;0.6021;1.5252;1.822
5.535000;-0.8158;0.6889;1.5986;1.922
5.540000;-0.8357;0.8084;1.5770;1.959
5.556000;-0.8582;0.8834;1.5182;1.955
5.557000;-0.8312;0.9476;1.3550;1.851
5.557000;-0.7817;1.0033;1.2216;1.763
5.561000;-0.7039;1.1152;1.0222;1.669
5.564000;-0.6421;1.1908;0.8308;1.588
5.570000;-0.5666;1.2804;0.6808;1.557
5.575000;-0.4543;1.3944;0.5624;1.571
5.579000;-0.3515;1.5114;0.4302;1.610
5.583000;-0.2415;1.6246;0.3652;1.683
5.589000;-0.1676;1.7318;0.2910;1.764
5.594000;-0.1410;1.8286;0.2027;1.845
5.599000;-0.1325;1.8741;0.0979;1.881
5.604000;-0.1122;1.9308;0.0126;1.934
5.609000;-0.0840;1.9749;-0.0533;1.977
5.613000;-0.0639;2.0282;-0.1620;2.036
5.619000;-0.0517;1.9902;-0.2561;2.007
5.623000;-0.0208;1.9453;-0.3429;1.975
5.628000;0.0096;1.8865;-0.4486;1.939
5.633000;0.0054;1.7804;-0.4659;1.840
5.637000;0.0188;1.6727;-0.4928;1.744
5.644000;0.0414;1.5782;-0.4889;1.653
5.650000;0.0654;1.4371;-0.3848;1.489
5.652000;0.0733;1.3384;-0.3099;1.376
5.658000;0.0382;1.2389;-0.1854;1.253
5.663000;-0.0043;1.1436;-0.0495;1.145
5.689000;-0.0927;1.0759;0.1814;1.095
5.690000;-0.1170;1.0074;0.4332;1.103
5.690000;-0.1824;0.9186;0.7870;1.223
5.691000;-0.2526;0.8329;1.1905;1.475
5.691000;-0.2748;0.7642;1.5527;1.752
5.692000;-0.2962;0.6884;1.8547;2.000
5.696000;-0.3332;0.6407;2.1613;2.279
5.702000;-0.3776;0.5944;2.4367;2.536
5.706000;-0.4052;0.5416;2.6406;2.726
5.712000;-0.4271;0.4988;2.7874;2.864
5.716000;-0.4284;0.4629;2.8750;2.943
5.721000;-0.4133;0.4290;2.8462;2.908
5.727000;-0.4101;0.3414;2.7204;2.772
5.731000;-0.3896;0.3296;2.5287;2.580
5.736000;-0.3730;0.3093;2.2140;2.266
5.751000;-0.3675;0.2817;1.9554;2.009
5.752000;-0.3423;0.2943;1.4566;1.525
5.752000;-0.3314;0.2838;1.3796;1.447
5.756000;-0.2807;0.2098;1.1119;1.166
5.761000;-0.1892;0.1499;0.7994;0.835
5.765000;-0.0819;0.0447;0.6357;0.642
5.770000;0.0282;-0.0405;0.4361;0.439
5.776000;0.1120;-0.1244;0.3226;0.363
5.780000;0.1572;-0.2132;0.1920;0.327
5.785000;0.2236;-0.2809;0.0587;0.364
5.790000;0.2397;-0.3031;-0.0512;0.390
5.794000;0.2230;-0.3492;-0.1664;0.446
5.799000;0.2269;-0.3567;-0.2582;0.495
5.805000;0.2255;-0.3855;-0.3220;0.551
5.810000;0.2218;-0.4446;-0.3651;0.617
5.815000;0.2282;-0.4601;-0.4018;0.652
5.819000;0.2448;-0.4840;-0.3942;0.670
5.824000;0.2933;-0.4824;-0.3543;0.667
5.830000;0.3735;-0.4983;-0.2559;0.673
5.834000;0.4611;-0.4882;-0.1184;0.682
5.839000;0.6086;-0.5336;0.0918;0.815
5.845000;0.7485;-0.5843;0.3601;1.016
5.848000;0.8662;-0.6406;0.6222;1.244
5.853000;0.9857;-0.6650;0.8688;1.473
5.881000;1.0766;-0.7230;1.1024;1.702
5.882000;1.1347;-0.7384;1.3330;1.900
5.882000;1.1608;-0.7557;1.5034;2.044
5.883000;1.1487;-0.7896;1.6330;2.147
5.883000;1.1182;-0.8296;1.7030;2.200
5.884000;1.1130;-0.8856;1.6660;2.191
5.888000;1.1379;-1.0040;1.5749;2.187
5.893000;1.1597;-1.1179;1.4153;2.144
5.898000;1.1898;-1.2347;1.2042;2.095
5.903000;1.2541;-1.3564;1.0062;2.104
5.907000;1.2845;-1.4635;0.8065;2.108
5.912000;1.2705;-1.5982;0.6244;2.135
5.918000;1.2301;-1.6737;0.5430;2.147
5.923000;1.1697;-1.7225;0.4188;2.124
5.944000;1.0905;-1.7679;0.3470;2.106
5.945000;0.9876;-1.8307;0.2940;2.101
5.945000;0.8824;-1.8247;0.2382;2.041
5.945000;0.7680;-1.8570;0.2751;2.028
5.947000;0.6045;-1.8563;0.2757;1.972
5.952000;0.4167;-1.8394;0.2949;1.909
5.957000;0.2270;-1.8163;0.2731;1.851
5.961000;0.0672;-1.7565;0.2153;1.771
5.967000;-0.0716;-1.7015;0.1482;1.709
5.971000;-0.1838;-1.6541;0.0191;1.664
5.976000;-0.2716;-1.6054;-0.1214;1.633
5.981000;-0.2612;-1.5748;-0.2636;1.618
5.985000;-0.2109;-1.5438;-0.4648;1.626
5.990000;-0.1406;-1.4983;-0.6269;1.630
6.000000;-0.0253;-1.4456;-0.8241;1.664
6.000000;0.1054;-1.3499;-1.0084;1.688
6.005000;0.2602;-1.1945;-1.1729;1.694
6.012000;0.4436;-1.0486;-1.3271;1.749
6.015000;0.6143;-0.8978;-1.4759;1.833
6.020000;0.7558;-0.7372;-1.5691;1.891
6.046000;0.8728;-0.5689;-1.6308;1.935
6.047000;0.9826;-0.4503;-1.7328;2.042
6.047000;1.1071;-0.3096;-1.8128;2.147
6.047000;1.2400;-0.1659;-1.8636;2.245
6.048000;1.3318;-0.0189;-1.8998;2.320
6.049000;1.4024;0.0791;-1.9786;2.426
6.054000;1.4168;0.1282;-2.0810;2.521
6.060000;1.3876;0.2053;-2.2260;2.631
6.066000;1.3179;0.2058;-2.3683;2.718
6.069000;1.2484;0.1918;-2.4912;2.793
6.074000;1.2050;0.1477;-2.5519;2.826
6.079000;1.1325;0.0832;-2.6437;2.877
6.084000;1.0320;0.0206;-2.6713;2.864
6.089000;0.8811;-0.0470;-2.6803;2.822
6.095000;0.7073;-0.0877;-2.6351;2.730
6.099000;0.5119;-0.1495;-2.5262;2.582
6.103000;0.3706;-0.1868;-2.3705;2.407
6.108000;0.1751;-0.2330;-2.2280;2.247
6.113000;0.0355;-0.2598;-2.0554;2.072
6.117000;-0.0790;-0.3128;-1.8479;1.876
6.123000;-0.1894;-0.3474;-1.6293;1.677
6.132000;-0.2184;-0.3804;-1.4425;1.508
6.133000;-0.2369;-0.4100;-1.2036;1.293
6.138000;-0.2424;-0.4216;-0.8888;1.013
6.191000;-0.2250;-0.4064;-0.6152;0.771
6.192000;-0.1770;-0.4100;-0.3754;0.583
6.192000;-0.0767;-0.3610;-0.1144;0.386
6.193000;0.0213;-0.3478;0.0842;0.358
6.193000;0.1005;-0.3115;0.2350;0.403
6.193000;0.1853;-0.2711;0.3572;0.485
6.194000;0.2547;-0.2438;0.4557;0.576
6.194000;0.3306;-0.1868;0.5186;0.643
6.194000;0.4276;-0.1051;0.6201;0.760
6.195000;0.4909;-0.0155;0.6598;0.822
6.195000;0.5540;0.0602;0.6927;0.889
6.197000;0.6095;0.1484;0.6615;0.912
6.201000;0.6593;0.2227;0.6357;0.943
6.206000;0.7034;0.2833;0.5409;0.931
6.211000;0.7292;0.3015;0.4563;0.912
6.215000;0.7465;0.3373;0.3554;0.893
6.221000;0.7667;0.3766;0.2453;0.889
6.230000;0.7274;0.4097;0.1405;0.847
6.231000;0.6905;0.4730;0.0504;0.838
6.237000;0.6367;0.5784;-0.0777;0.864
6.240000;0.5829;0.6256;-0.1816;0.874
6.263000;0.5316;0.7319;-0.2828;0.948
6.264000;0.4734;0.7970;-0.3934;1.007
6.264000;0.4564;0.8568;-0.4773;1.082
6.264000;0.4327;0.9137;-0.5492;1.150
6.268000;0.4070;0.9486;-0.5754;1.182
6.270000;0.3531;0.9951;-0.6206;1.225
6.275000;0.3255;1.0365;-0.6704;1.277
6.280000;0.3028;1.0777;-0.7177;1.330
6.285000;0.2871;1.1090;-0.7602;1.375
6.289000;0.2808;1.1545;-0.7117;1.385
6.294000;0.2886;1.1950;-0.6944;1.412
6.299000;0.2505;1.2214;-0.6747;1.418
6.304000;0.2262;1.2719;-0.5523;1.405
6.309000;0.1938;1.3037;-0.3992;1.377
6.314000;0.1769;1.3456;-0.1987;1.372
6.319000;0.1586;1.3332;0.0086;1.343
6.324000;0.1485;1.3406;0.2106;1.365
6.332000;0.1229;1.3177;0.4192;1.388
6.334000;0.0966;1.2812;0.6609;1.445
6.338000;0.0321;1.2740;0.9189;1.571
6.373000;-0.1252;1.2195;1.1191;1.660
6.373000;-0.2716;1.1630;1.2903;1.758
6.374000;-0.4548;1.1091;1.4279;1.864
6.374000;-0.6480;1.0387;1.5557;1.980
6.375000;-0.8173;0.9516;1.5784;2.016
6.375000;-0.9500;0.8407;1.6202;2.058
6.375000;-1.0218;0.7729;1.6048;2.054
6.379000;-1.1444;0.6908;1.5251;2.028
6.382000;-1.2339;0.6690;1.4289;2.003
6.387000;-1.3449;0.6330;1.3068;1.979
6.392000;-1.4751;0.6407;1.2016;2.008
6.398000;-1.6463;0.6683;1.0896;2.084
6.403000;-1.7637;0.7184;0.9586;2.132
6.406000;-1.8326;0.7220;0.6868;2.086
6.412000;-1.8374;0.7578;0.6758;2.099
6.417000;-1.8381;0.6736;0.6527;2.064
6.421000;-1.8224;0.6293;0.4478;1.979
6.426000;-1.8606;0.5414;0.5177;2.006
6.433000;-1.9551;0.4578;0.7040;2.128
6.436000;-1.9715;0.3594;0.9611;2.223
6.441000;-1.9720;0.2238;1.3077;2.377
6.464000;-1.8408;0.0631;1.6768;2.491
6.464000;-1.6700;-0.1520;2.1066;2.693
6.465000;-1.5079;-0.3740;2.5826;3.014
6.465000;-1.2923;-0.5794;3.0476;3.361
6.466000;-1.1374;-0.7444;3.4468;3.705
6.470000;-1.0104;-0.9457;3.7876;4.033
6.476000;-0.9694;-1.1352;4.1086;4.371
6.480000;-0.9606;-1.2821;4.3433;4.629
6.485000;-0.9746;-1.4320;4.4896;4.812
6.490000;-1.0729;-1.5398;4.5455;4.918
6.495000;-1.2228;-1.6179;4.4396;4.881
6.500000;-1.4261;-1.6980;4.2249;4.771
6.505000;-1.6813;-1.6848;3.8228;4.503
6.510000;-1.9504;-1.6530;3.3627;4.224
6.515000;-2.1894;-1.5785;2.7704;3.868
6.519000;-2.3003;-1.5214;2.1682;3.508
6.525000;-2.3408;-1.4718;1.5081;3.150
6.530000;-2.3053;-1.4171;0.8402;2.833
6.534000;-2.1481;-1.3619;0.2219;2.553
6.539000;-1.9415;-1.2648;-0.2326;2.329
6.566000;-1.7074;-1.1588;-0.6432;2.161
6.567000;-1.4323;-1.0220;-0.9361;1.993
6.567000;-1.1274;-0.8971;-1.1570;1.848
6.567000;-0.8017;-0.7238;-1.3280;1.712
6.568000;-0.4965;-0.4737;-1.4348;1.590
6.568000;-0.2241;-0.2327;-1.4751;1.510
6.574000;-0.0037;-0.0130;-1.4108;1.411
6.579000;0.1960;0.1996;-1.3256;1.355
6.584000;0.3780;0.3786;-1.2386;1.349
6.589000;0.5291;0.5551;-1.1400;1.374
6.593000;0.6432;0.6572;-1.0753;1.415
6.598000;0.7049;0.7136;-1.0107;1.424
6.602000;0.7320;0.6978;-0.9964;1.420
6.608000;0.8336;0.6002;-0.9914;1.428
6.613000;0.8929;0.5165;-0.9885;1.429
6.617000;0.9274;0.3849;-1.0476;1.451
6.622000;0.8991;0.2148;-1.1064;1.442
6.631000;0.8323;0.0186;-1.1649;1.432
6.633000;0.7482;-0.1722;-1.2401;1.458
6.637000;0.5867;-0.3092;-1.3439;1.499
6.642000;0.4716;-0.3854;-1.4645;1.586
6.668000;0.3284;-0.5390;-1.5207;1.646
6.668000;0.2092;-0.6289;-1.5318;1.669
6.669000;0.1258;-0.7101;-1.5217;1.684
6.669000;0.0610;-0.8066;-1.5144;1.717
6.669000;0.0147;-0.8707;-1.4453;1.687
6.671000;0.0371;-0.9337;-1.3957;1.680
6.676000;0.1019;-0.9859;-1.3202;1.651
6.683000;0.1543;-0.9939;-1.2499;1.604
6.686000;0.1876;-0.9676;-1.1774;1.536
6.691000;0.2238;-0.9501;-1.0766;1.453
6.697000;0.2683;-0.8891;-0.9759;1.347
6.701000;0.2926;-0.8254;-0.8634;1.230
6.706000;0.3353;-0.7303;-0.8084;1.140
6.712000;0.3582;-0.6589;-0.7033;1.028
6.715000;0.3876;-0.5685;-0.6077;0.918
6.720000;0.3921;-0.4929;-0.5432;0.832
6.726000;0.3860;-0.4368;-0.4667;0.747
6.731000;0.3091;-0.3739;-0.4308;0.649
6.736000;0.2473;-0.3690;-0.3398;0.559
6.740000;0.0927;-0.3531;-0.3419;0.500
6.749000;-0.0329;-0.3022;-0.3318;0.450
6.750000;-0.1940;-0.3027;-0.3477;0.500
6.755000;-0.3167;-0.3093;-0.4063;0.601
6.759000;-0.4371;-0.2983;-0.4524;0.696
6.794000;-0.5243;-0.3033;-0.4886;0.778
6.794000;-0.5472;-0.3122;-0.5196;0.817
6.795000;-0.6092;-0.3153;-0.5765;0.896
6.795000;-0.6505;-0.2911;-0.6450;0.961
6.795000;-0.7020;-0.2964;-0.6893;1.028
6.795000;-0.7233;-0.2550;-0.7859;1.098
6.796000;-0.7094;-0.2574;-0.8464;1.134
6.798000;-0.6869;-0.2387;-0.8900;1.149
6.804000;-0.6844;-0.2130;-0.9694;1.206
6.808000;-0.6757;-0.1349;-1.0033;1.217
6.814000;-0.6894;-0.0662;-1.0229;1.235
6.819000;-0.6896;0.0001;-1.0401;1.248
6.824000;-0.6473;0.1385;-1.0335;1.227
6.829000;-0.5937;0.2175;-1.0199;1.200
6.834000;-0.5115;0.3210;-0.9922;1.161
6.838000;-0.4247;0.4030;-0.9669;1.130
6.843000;-0.3257;0.4616;-0.9274;1.086
6.849000;-0.2194;0.5326;-0.9096;1.077
6.852000;-0.0889;0.5944;-0.8609;1.050
6.857000;0.0129;0.6349;-0.8026;1.023
6.887000;0.1432;0.7258;-0.7781;1.074
6.887000;0.2566;0.7669;-0.7536;1.105
6.888000;0.3483;0.8223;-0.6885;1.128
6.888000;0.3989;0.9088;-0.6403;1.181
6.888000;0.4254;0.9787;-0.5587;1.205
6.889000;0.4182;1.0245;-0.4916;1.211
6.892000;0.4252;1.0921;-0.4437;1.253
6.897000;0.4417;1.1212;-0.4222;1.277
6.901000;0.4200;1.1215;-0.3719;1.254
6.906000;0.3840;1.1264;-0.3168;1.232
6.911000;0.3439;1.1077;-0.2810;1.193
6.917000;0.3235;1.1053;-0.2308;1.175
6.921000;0.2969;1.0574;-0.2211;1.120
6.926000;0.2761;1.0260;-0.1898;1.079
6.931000;0.1991;0.9826;-0.1944;1.021
6.936000;0.1113;0.9482;-0.2130;0.978
6.941000;0.0387;0.9039;-0.2004;0.927
6.962000;0.0099;0.8713;-0.2211;0.899
6.962000;-0.0546;0.8288;-0.2632;0.871
6.963000;-0.0835;0.7693;-0.2621;0.817
6.963000;-0.0508;0.7576;-0.2802;0.809
6.965000;-0.0454;0.7055;-0.3030;0.769
6.970000;-0.0744;0.6823;-0.2973;0.748
6.975000;-0.0908;0.6642;-0.2653;0.721
6.980000;-0.1256;0.6394;-0.1548;0.670
6.985000;-0.1338;0.5935;-0.0541;0.611
6.990000;-0.1417;0.5815;0.1084;0.608
6.994000;-0.1471;0.5772;0.3040;0.669
6.999000;-0.1304;0.5805;0.4753;0.761
7.005000;-0.0871;0.5408;0.6678;0.864
7.010000;-0.0763;0.5276;0.8863;1.034
7.014000;-0.0455;0.4542;1.1477;1.235
7.019000;0.0132;0.3757;1.4400;1.488
7.024000;0.0758;0.3036;1.7108;1.739
7.032000;0.1449;0.2162;2.0484;2.065
7.035000;0.2966;0.1398;2.2858;2.309
7.039000;0.3993;0.0452;2.5304;2.562
7.043000;0.5103;0.0279;2.8233;2.869
7.069000;0.6178;0.0517;3.0877;3.149
7.070000;0.7316;0.0997;3.2881;3.370
7.071000;0.8503;0.1549;3.4030;3.511
7.071000;0.9532;0.2049;3.4065;3.543
7.072000;1.0496;0.2593;3.3393;3.510
7.073000;1.1286;0.2967;3.2158;3.421
7.078000;1.1364;0.2506;3.1459;3.354
7.083000;1.1267;0.2888;2.6107;2.858
7.088000;1.0472;0.2717;2.3608;2.597
7.093000;0.9532;0.2499;2.1591;2.373
7.097000;0.8483;0.2078;1.8593;2.054
7.102000;0.6744;0.1560;1.6429;1.783
7.108000;0.4972;0.0760;1.3518;1.442
7.112000;0.3249;0.0018;1.1317;1.177
7.117000;0.1759;-0.0682;0.9224;0.942
7.122000;0.1022;-0.0933;0.7312;0.744
7.128000;0.0454;-0.1262;0.6033;0.618
7.134000;0.0770;-0.1430;0.5362;0.560
7.136000;0.1009;-0.1676;0.5419;0.576
7.141000;0.1761;-0.2171;0.5917;0.654
7.170000;0.2691;-0.3012;0.6975;0.806
7.171000;0.3478;-0.3940;0.8497;0.999
7.171000;0.4409;-0.4933;1.0701;1.258
7.171000;0.4932;-0.5875;1.2796;1.492
7.172000;0.5055;-0.6533;1.4954;1.708
7.172000;0.4615;-0.7273;1.6578;1.868
7.175000;0.4146;-0.8006;1.8127;2.025
7.181000;0.3102;-0.8861;1.9197;2.137
7.185000;0.1946;-0.9411;1.9242;2.151
7.190000;-0.0035;-1.0361;1.9055;2.169
7.195000;-0.1544;-1.1354;1.8519;2.178
7.200000;-0.3347;-1.2489;1.7824;2.202
7.205000;-0.4774;-1.3147;1.6472;2.161
7.210000;-0.5738;-1.4284;1.4797;2.135
7.215000;-0.6884;-1.5299;1.2367;2.084
7.220000;-0.7288;-1.5787;0.9472;1.980
7.225000;-0.8026;-1.6079;0.6611;1.915
7.233000;-0.8601;-1.6413;0.3737;1.890
7.234000;-0.9207;-1.6043;0.0656;1.851
7.239000;-0.9638;-1.6042;-0.2442;1.887
7.244000;-0.9778;-1.5881;-0.5296;1.939
7.249000;-0.9920;-1.5771;-0.8027;2.029
7.282000;-0.9735;-1.5806;-1.0182;2.117
7.283000;-0.9369;-1.5694;-1.1931;2.183
7.284000;-0.8824;-1.5050;-1.3682;2.217
7.284000;-0.8222;-1.4902;-1.4958;2.266
7.285000;-0.7610;-1.4508;-1.5711;2.270
7.285000;-0.6724;-1.3987;-1.6612;2.273
7.286000;-0.6016;-1.3411;-1.7397;2.278
7.288000;-0.5314;-1.2851;-1.8091;2.282
7.293000;-0.4828;-1.2736;-1.9122;2.348
7.299000;-0.4313;-1.2014;-2.0419;2.408
7.303000;-0.4123;-1.1641;-2.1623;2.490
7.308000;-0.3801;-1.1521;-2.3045;2.604
7.313000;-0.3777;-1.0959;-2.3919;2.658
7.318000;-0.3523;-1.0841;-2.4509;2.703
7.322000;-0.2900;-1.0472;-2.4888;2.716
7.328000;-0.2146;-0.9923;-2.4338;2.637
7.333000;-0.1291;-0.9218;-2.3722;2.548
7.337000;-0.0500;-0.8743;-2.2609;2.425
7.341000;0.0749;-0.7899;-2.1404;2.283
7.382000;0.1888;-0.7430;-2.0227;2.163
7.383000;0.2991;-0.6428;-1.9245;2.051
7.384000;0.4543;-0.5851;-1.8001;1.947
7.384000;0.5855;-0.4816;-1.6736;1.837
7.384000;0.6960;-0.4475;-1.5567;1.763
7.384000;0.7383;-0.3945;-1.4325;1.659
7.385000;0.7423;-0.3395;-1.3608;1.587
7.385000;0.7464;-0.2708;-1.3295;1.549
7.386000;0.6725;-0.2076;-1.3457;1.519
7.391000;0.6001;-0.1812;-1.4452;1.575
7.396000;0.4554;-0.1675;-1.5706;1.644
7.400000;0.2843;-0.1064;-1.6789;1.706
7.406000;0.0936;-0.0864;-1.8276;1.832
7.411000;-0.0859;-0.0858;-1.9187;1.922
7.415000;-0.2572;-0.0993;-2.0264;2.045
7.421000;-0.4019;-0.0835;-2.1127;2.152
7.426000;-0.5637;-0.1243;-2.1681;2.244
7.430000;-0.6739;-0.1423;-2.1784;2.285
7.435000;-0.8001;-0.1254;-2.1270;2.276
7.440000;-0.9090;-0.1309;-1.9973;2.198
7.445000;-0.9916;-0.1277;-1.8802;2.129
7.450000;-1.0840;-0.1231;-1.7110;2.029
7.454000;-1.1697;-0.0770;-1.5590;1.951
7.459000;-1.2296;-0.0515;-1.4147;1.875
7.479000;-1.2451;-0.0330;-1.2347;1.754
7.480000;-1.2067;-0.0170;-1.1266;1.651
7.481000;-1.1626;0.0675;-0.9705;1.516
7.481000;-1.1030;0.1299;-0.8431;1.394
7.484000;-1.0064;0.2029;-0.6868;1.235
7.489000;-0.8800;0.2890;-0.5710;1.088
7.495000;-0.7213;0.3713;-0.4453;0.925
7.499000;-0.5565;0.4785;-0.3958;0.834
7.504000;-0.3848;0.5889;-0.3866;0.803
7.509000;-0.2082;0.6380;-0.3961;0.779
7.514000;-0.0429;0.6929;-0.4291;0.816
7.520000;0.1212;0.7350;-0.5047;0.900
7.524000;0.2651;0.7595;-0.5251;0.961
7.527000;0.4150;0.7694;-0.5071;1.011
7.533000;0.5203;0.8247;-0.5083;1.100
7.539000;0.6260;0.8661;-0.5191;1.188
7.543000;0.6984;0.8746;-0.5540;1.249
7.550000;0.7449;0.8984;-0.5916;1.308
7.557000;0.7583;0.9114;-0.6485;1.351
7.558000;0.7365;0.9112;-0.6316;1.331
7.562000;0.6696;0.9264;-0.5792;1.281
7.587000;0.6202;0.9331;-0.5152;1.233
7.588000;0.5686;0.9263;-0.4228;1.166
7.588000;0.4865;0.9180;-0.3093;1.084
7.589000;0.4594;0.8956;-0.2198;1.030
7.589000;0.4154;0.8545;-0.0994;0.955
7.591000;0.4070;0.7944;-0.0079;0.893
7.597000;0.3862;0.7677;0.1457;0.872
7.601000;0.3478;0.7333;0.2969;0.864
7.607000;0.3204;0.7368;0.4408;0.916
7.611000;0.2823;0.7296;0.6017;0.987
7.616000;0.2690;0.7572;0.7554;1.103
7.621000;0.2303;0.7786;0.9046;1.216
7.626000;0.2549;0.7743;1.0157;1.302
7.631000;0.2500;0.7896;1.1058;1.382
7.640000;0.2399;0.7574;1.1438;1.393
7.641000;0.2727;0.7562;1.1991;1.444
7.645000;0.2984;0.7220;1.2310;1.458
7.675000;0.3266;0.6977;1.2730;1.488
7.676000;0.3167;0.7361;1.2628;1.496
7.676000;0.2902;0.7730;1.2387;1.489
7.676000;0.2350;0.8538;1.2175;1.505
7.677000;0.1802;0.9356;1.1822;1.518
7.677000;0.1712;1.0404;1.1043;1.527
7.680000;0.1654;1.1274;1.0243;1.532
7.686000;0.2010;1.2090;1.0044;1.585
7.690000;0.2540;1.2830;0.9965;1.644
7.695000;0.3390;1.3612;0.9625;1.701
7.700000;0.4465;1.3986;0.9238;1.735
7.705000;0.5504;1.4283;0.8710;1.761
7.710000;0.6531;1.4172;0.8064;1.757
7.715000;0.7955;1.4060;0.7730;1.791
7.720000;0.8557;1.3903;0.6990;1.776
7.723000;0.8911;1.4010;0.7040;1.803
7.729000;0.8323;1.4286;0.6778;1.787
7.736000;0.7323;1.4183;0.6302;1.716
7.739000;0.6198;1.4200;0.6233;1.670
7.744000;0.4849;1.3669;0.6403;1.585
7.752000;0.3823;1.2994;0.5474;1.461
7.756000;0.2852;1.1577;0.7942;1.433
7.758000;0.2257;0.9538;0.8376;1.289
7.764000;0.2267;0.7139;0.9839;1.237
7.802000;0.2532;0.4694;1.1753;1.291
7.803000;0.3066;0.1914;1.4001;1.446
7.803000;0.4123;-0.0291;1.6889;1.739
7.804000;0.5912;-0.2090;2.0826;2.175
7.804000;0.7329;-0.3743;2.4899;2.622
7.804000;0.8041;-0.5276;2.8871;3.043
7.805000;0.8580;-0.6664;3.2431;3.420
7.806000;0.7995;-0.7619;3.6105;3.776
7.808000;0.7374;-0.8281;3.9486;4.101
7.812000;0.6005;-0.8533;4.2074;4.335
7.817000;0.4117;-0.8923;4.4108;4.519
7.822000;0.2488;-0.9474;4.5112;4.616
7.827000;0.0900;-1.0233;4.5301;4.645
7.835000;-0.0539;-1.1437;4.5011;4.644
7.837000;-0.1877;-1.2896;4.3788;4.569
7.841000;-0.3864;-1.4564;4.1514;4.416
7.846000;-0.6080;-1.5938;3.8308;4.193
7.869000;-0.8633;-1.7139;3.4436;3.942
7.870000;-1.1039;-1.7739;2.9995;3.655
7.871000;-1.3150;-1.8050;2.4865;3.342
7.872000;-1.4904;-1.8307;1.9311;3.050
7.872000;-1.6212;-1.8127;1.3954;2.804
7.876000;-1.6879;-1.7366;0.8985;2.583
7.882000;-1.7497;-1.6213;0.5074;2.439
7.886000;-1.7430;-1.5386;0.1574;2.330
7.891000;-1.6313;-1.3979;-0.1277;2.152
7.896000;-1.4887;-1.2900;-0.3742;2.005
7.903000;-1.2779;-1.1604;-0.5797;1.821
7.906000;-1.0648;-1.0043;-0.7708;1.654
7.911000;-0.8421;-0.9058;-0.9162;1.539
7.916000;-0.6415;-0.7981;-1.0376;1.458
7.921000;-0.4866;-0.6670;-1.0800;1.359
7.926000;-0.3063;-0.5605;-1.1559;1.321
7.930000;-0.1933;-0.4307;-1.1935;1.283
7.935000;-0.0761;-0.3400;-1.2096;1.259
7.940000;0.0335;-0.2764;-1.1732;1.206
7.944000;0.1478;-0.2614;-1.1990;1.236
7.976000;0.2773;-0.2709;-1.2032;1.264
7.976000;0.3819;-0.3288;-1.2433;1.342
7.977000;0.4503;-0.4583;-1.2476;1.403
7.977000;0.5149;-0.5729;-1.3071;1.517
7.977000;0.5406;-0.7299;-1.3141;1.597
7.978000;0.5741;-0.8284;-1.3381;1.675
7.979000;0.5729;-0.9016;-1.4102;1.769
7.984000;0.4853;-0.9827;-1.5065;1.863
7.989000;0.3930;-1.0331;-1.6223;1.963
7.994000;0.3063;-1.1004;-1.7122;2.058
8.000000;0.1419;-1.1892;-1.7930;2.156
8.004000;-0.0091;-1.2540;-1.9389;2.309
8.008000;-0.1539;-1.3476;-2.0158;2.430
8.014000;-0.2168;-1.4225;-2.0931;2.540
8.019000;-0.2794;-1.4902;-2.1350;2.619
8.023000;-0.3546;-1.4869;-2.1700;2.654
8.028000;-0.3950;-1.4843;-2.2317;2.709
8.036000;-0.4157;-1.4427;-2.2744;2.725
8.040000;-0.4195;-1.3405;-2.2766;2.675
8.043000;-0.3925;-1.2502;-2.2118;2.571
8.048000;-0.3400;-1.1217;-2.1232;2.425
8.052000;-0.2748;-0.9891;-1.9964;2.245
8.090000;-0.2306;-0.8646;-1.8815;2.083
8.091000;-0.1932;-0.7485;-1.7593;1.922
8.091000;-0.1915;-0.6795;-1.6441;1.789
8.091000;-0.1827;-0.5956;-1.5406;1.662
8.092000;-0.2075;-0.5039;-1.4728;1.570
8.092000;-0.2687;-0.4028;-1.3447;1.429
8.092000;-0.3376;-0.3280;-1.3119;1.394
8.094000;-0.3877;-0.2582;-1.3216;1.401
8.097000;-0.4351;-0.1982;-1.3187;1.403
8.103000;-0.4677;-0.1000;-1.3703;1.451
8.106000;-0.4679;-0.0330;-1.4689;1.542
8.111000;-0.4567;-0.0208;-1.5644;1.630
8.116000;-0.4429;-0.0030;-1.6928;1.750
8.121000;-0.4023;0.0521;-1.8087;1.854
8.126000;-0.3654;0.0826;-1.9624;1.998
8.131000;-0.3656;0.0559;-2.0897;2.122
8.136000;-0.3571;0.0466;-2.1762;2.206
8.140000;-0.3310;0.0147;-2.2223;2.247
8.146000;-0.3351;0.0278;-2.2474;2.272
8.171000;-0.3582;0.0361;-2.2206;2.250
8.171000;-0.3481;0.0705;-2.1658;2.195
8.172000;-0.3411;0.1099;-2.0952;2.126
8.173000;-0.3521;0.1826;-1.9681;2.008
8.173000;-0.3691;0.2575;-1.8156;1.871
8.174000;-0.3677;0.3366;-1.7069;1.778
8.180000;-0.3742;0.4123;-1.5391;1.637
8.186000;-0.3641;0.4770;-1.3574;1.484
8.190000;-0.3135;0.5399;-1.1737;1.329
8.195000;-0.2344;0.5884;-0.9425;1.136
8.200000;-0.1295;0.6415;-0.7115;0.967
8.204000;-0.0205;0.6796;-0.5045;0.847
8.209000;0.0542;0.7337;-0.2713;0.784
8.214000;0.1423;0.8084;-0.0883;0.826
8.219000;0.1887;0.8606;0.0923;0.886
8.224000;0.2678;0.9451;0.2801;1.021
8.238000;0.3223;0.9758;0.4083;1.106
8.239000;0.3337;1.0482;0.4722;1.197
8.239000;0.3478;1.1006;0.5411;1.275
8.249000;0.3342;1.1065;0.6293;1.316
8.249000;0.3220;1.1217;0.6172;1.320
8.276000;0.2615;1.1150;0.6555;1.320
8.277000;0.1699;1.1202;0.6437;1.303
8.277000;0.0880;1.0778;0.5961;1.235
8.277000;-0.0463;1.0240;0.5604;1.168
8.278000;-0.1634;0.9854;0.5031;1.118
8.278000;-0.2902;0.9335;0.4672;1.083
8.290000;-0.4433;0.8826;0.4312;1.078
8.290000;-0.5660;0.8569;0.3901;1.099
8.292000;-0.6707;0.8299;0.3513;1.123
8.297000;-0.7533;0.7918;0.3434;1.146
8.303000;-0.7951;0.7640;0.3616;1.160
8.307000;-0.8422;0.7392;0.3509;1.174
8.312000;-0.8328;0.6956;0.3784;1.149
8.317000;-0.7821;0.7025;0.4871;1.159
8.322000;-0.7122;0.7093;0.6624;1.204
8.326000;-0.6433;0.7065;0.8661;1.290
8.331000;-0.5785;0.7439;1.1221;1.465
8.336000;-0.4920;0.7637;1.4065;1.674
8.341000;-0.4461;0.8231;1.6261;1.876
8.346000;-0.3327;0.8571;1.9174;2.126
8.363000;-0.1872;0.9083;2.1706;2.360
8.364000;-0.0832;0.9383;2.3427;2.525
8.364000;-0.0122;0.9490;2.4722;2.648
8.366000;0.0676;0.9429;2.5306;2.701
8.374000;0.1125;0.9508;2.5825;2.754
8.375000;0.1236;0.9536;2.5850;2.758
8.380000;0.1305;0.9634;2.5238;2.705
8.386000;0.1644;0.8915;2.3966;2.562
8.390000;0.1633;0.8579;2.1891;2.357
8.396000;0.1670;0.7550;1.9466;2.095
8.400000;0.2230;0.6767;1.6693;1.815
8.405000;0.3040;0.5227;1.4453;1.567
8.410000;0.3468;0.3540;1.1478;1.250
8.415000;0.4644;0.1945;1.2116;1.312
8.419000;0.6341;-0.0243;1.1631;1.325
8.424000;0.7685;-0.2373;1.0356;1.311
8.430000;0.8671;-0.4367;1.0393;1.422
8.435000;0.8795;-0.6244;1.0092;1.477
8.439000;0.8443;-0.7689;1.0479;1.550
8.445000;0.7001;-0.8843;1.1098;1.582
8.450000;0.5795;-0.9870;1.2308;1.681
8.455000;0.4140;-1.0649;1.3341;1.756
8.458000;0.2456;-1.1322;1.5082;1.902
8.463000;0.1129;-1.1822;1.6002;1.993
8.495000;0.0887;-1.2267;1.7225;2.116
8.496000;0.1306;-1.2828;1.8272;2.236
8.497000;0.1779;-1.3340;1.8570;2.293
8.497000;0.2887;-1.3754;1.8956;2.360
8.497000;0.4091;-1.4746;1.9145;2.451
8.499000;0.4631;-1.5335;1.8656;2.459
8.500000;0.4492;-1.5624;1.7589;2.395
8.504000;0.4344;-1.6190;1.5778;2.302
8.508000;0.3951;-1.6347;1.3225;2.139
8.513000;0.2764;-1.6647;1.0743;2.000
8.519000;0.1451;-1.5687;0.7284;1.736
8.523000;0.0318;-1.5428;0.3995;1.594
8.528000;-0.0525;-1.4561;0.1095;1.461
8.532000;-0.0729;-1.3323;-0.1942;1.348
8.537000;-0.0242;-1.1910;-0.4829;1.285
8.543000;0.0641;-1.0248;-0.6920;1.238
8.547000;0.2455;-0.8961;-0.8645;1.269
8.589000;0.4955;-0.7614;-1.0245;1.369
8.590000;0.7679;-0.5971;-1.1551;1.510
8.590000;1.0243;-0.4889;-1.2207;1.667
8.591000;1.2786;-0.3984;-1.3265;1.885
8.591000;1.4829;-0.2895;-1.4057;2.064
8.591000;1.6154;-0.1717;-1.4176;2.156
8.592000;1.7193;-0.0495;-1.4413;2.244
8.592000;1.7324;0.0340;-1.4528;2.261
8.593000;1.6765;0.1175;-1.4954;2.250
8.596000;1.5902;0.1987;-1.5189;2.208
8.601000;1.4477;0.2347;-1.5519;2.135
8.606000;1.3022;0.2614;-1.5562;2.046
8.611000;1.1017;0.2792;-1.5416;1.915
8.616000;0.8565;0.2472;-1.5223;1.764
8.621000;0.6577;0.1441;-1.4530;1.601
8.625000;0.4552;0.0226;-1.3863;1.459
8.630000;0.3230;-0.0909;-1.3413;1.383
8.669000;0.1700;-0.2209;-1.3036;1.333
8.669000;0.0557;-0.3314;-1.3353;1.377
8.670000;-0.0872;-0.4177;-1.3119;1.380
8.670000;-0.1467;-0.4633;-1.2934;1.382
8.670000;-0.2575;-0.5284;-1.2532;1.384
8.670000;-0.3266;-0.5243;-1.2082;1.357
8.671000;-0.3547;-0.4969;-1.1369;1.290
8.671000;-0.3420;-0.4321;-1.0510;1.187
8.674000;-0.2386;-0.4184;-0.9508;1.066
8.679000;-0.1639;-0.3458;-0.8744;0.954
8.685000;-0.0553;-0.3152;-0.7858;0.848
8.689000;-0.0105;-0.2831;-0.6828;0.739
8.694000;0.1148;-0.2233;-0.6131;0.663
8.699000;0.1943;-0.1643;-0.5338;0.591
8.704000;0.2978;-0.1181;-0.4161;0.525
8.709000;0.3754;-0.0990;-0.3415;0.517
8.714000;0.4872;-0.0635;-0.2740;0.563
8.720000;0.5951;-0.0594;-0.1995;0.630
8.724000;0.6063;-0.0814;-0.1393;0.627
8.729000;0.6144;-0.1007;-0.1056;0.631
8.733000;0.6050;-0.1077;-0.0601;0.617
8.738000;0.5543;-0.2045;0.0210;0.591
8.743000;0.5077;-0.2786;0.0993;0.588
8.748000;0.4218;-0.3397;0.2156;0.583
8.788000;0.3107;-0.4091;0.3075;0.599
8.789000;0.1979;-0.5010;0.3345;0.634
8.789000;0.0404;-0.5633;0.4067;0.696
8.789000;-0.1069;-0.6123;0.5215;0.811
8.790000;-0.2564;-0.6559;0.5668;0.904
8.790000;-0.4008;-0.7156;0.5928;1.012
8.790000;-0.5831;-0.7130;0.6164;1.108
8.791000;-0.6956;-0.7156;0.5899;1.159
8.792000;-0.8099;-0.7189;0.6138;1.245
8.799000;-0.8947;-0.7186;0.5734;1.283
8.803000;-0.8999;-0.6341;0.5120;1.214
8.807000;-0.9019;-0.5949;0.3843;1.147
8.812000;-0.8409;-0.5271;0.2526;1.024
8.816000;-0.7190;-0.4141;0.0596;0.832
8.822000;-0.5869;-0.2919;-0.1709;0.677
8.826000;-0.4324;-0.1819;-0.4052;0.620
8.831000;-0.2707;-0.0550;-0.6411;0.698
8.838000;-0.1520;0.0531;-0.8355;0.851
8.841000;-0.0269;0.1454;-0.9649;0.976
8.845000;0.1235;0.2388;-1.1248;1.157
8.880000;0.2390;0.3624;-1.2247;1.299
8.881000;0.3149;0.4803;-1.3481;1.465
8.881000;0.3726;0.5689;-1.4760;1.625
8.881000;0.4267;0.7171;-1.5846;1.791
8.881000;0.4676;0.8438;-1.6621;1.922
8.882000;0.4835;0.9275;-1.7586;2.046
8.882000;0.5174;1.0261;-1.8122;2.146
8.885000;0.5334;1.0990;-1.8324;2.202
8.890000;0.5338;1.1369;-1.8456;2.232
8.895000;0.5424;1.1731;-1.8950;2.294
8.900000;0.5352;1.2222;-1.8800;2.305
8.905000;0.5577;1.2267;-1.8892;2.321
8.911000;0.5454;1.2607;-1.8556;2.309
8.915000;0.5487;1.3075;-1.8271;2.313
8.919000;0.5603;1.3100;-1.7703;2.272
8.925000;0.5539;1.3540;-1.6852;2.232
8.930000;0.5440;1.3916;-1.5645;2.163
8.938000;0.5471;1.4158;-1.4181;2.077
8.939000;0.5582;1.4504;-1.2362;1.986
8.943000;0.5555;1.4834;-1.0525;1.902
8.948000;0.5754;1.5007;-0.8311;1.809
8.985000;0.6081;1.5188;-0.6173;1.749
8.985000;0.6063;1.5593;-0.3659;1.713
8.986000;0.6302;1.5717;-0.1364;1.699
8.986000;0.6374;1.5965;0.0591;1.720
8.986000;0.6095;1.5930;0.2759;1.728
8.986000;0.6116;1.6018;0.4399;1.770
8.987000;0.5917;1.5796;0.6514;1.808
8.988000;0.6025;1.5409;0.8292;1.851
8.993000;0.6105;1.4784;1.0451;1.911
8.998000;0.5748;1.4041;1.2369;1.957
9.003000;0.5379;1.3039;1.4976;2.057
9.011000;0.4233;1.2613;1.6720;2.137
9.013000;0.3263;1.2119;1.8533;2.238
9.017000;0.1754;1.1915;2.0128;2.346
9.023000;0.0353;1.1570;2.1506;2.442
9.027000;-0.1369;1.1081;2.2715;2.531
9.032000;-0.2429;1.0755;2.3542;2.600
9.038000;-0.3803;1.0231;2.4179;2.653
9.042000;-0.4795;0.9362;2.4006;2.621
9.046000;-0.6070;0.8720;2.4101;2.634
9.052000;-0.6788;0.8184;2.3913;2.617
9.077000;-0.7214;0.8038;2.3540;2.590
9.078000;-0.7475;0.7684;2.2599;2.501
9.079000;-0.7524;0.7264;2.1020;2.348
9.079000;-0.7201;0.6710;1.9879;2.218
9.079000;-0.6558;0.6713;1.7979;2.028
9.082000;-0.6130;0.6011;1.8094;2.003
9.085000;-0.5969;0.6540;1.6802;1.899
9.092000;-0.5683;0.6440;1.7139;1.917
9.095000;-0.5182;0.6907;1.7214;1.926
9.101000;-0.4308;0.7225;1.7146;1.910
9.106000;-0.3352;0.6771;1.6625;1.826
9.110000;-0.1646;0.6198;1.6556;1.775
9.116000;-0.0057;0.5529;1.7156;1.802
9.122000;0.2107;0.4293;1.7583;1.822
9.125000;0.3650;0.2969;1.8628;1.921
9.130000;0.5002;0.1519;2.0239;2.090
9.135000;0.6189;0.0159;2.2366;2.321
9.166000;0.6952;-0.1438;2.4555;2.556
9.167000;0.7058;-0.2722;2.6302;2.737
9.167000;0.7118;-0.4076;2.7872;2.905
9.167000;0.6399;-0.5360;2.8407;2.961
9.168000;0.5804;-0.7054;2.8459;2.989
9.168000;0.4314;-0.8229;2.8053;2.955
9.170000;0.2211;-0.9798;2.7503;2.928
9.174000;0.0123;-1.1003;2.5640;2.790
9.179000;-0.1464;-1.2280;2.3495;2.655
9.183000;-0.3601;-1.3421;2.0854;2.506
9.189000;-0.5279;-1.3906;1.6932;2.254
9.194000;-0.6570;-1.4266;1.2806;2.026
9.199000;-0.7713;-1.3905;0.8095;1.784
9.204000;-0.7945;-1.3879;0.3661;1.641
9.208000;-0.7705;-1.3156;-0.0712;1.526
9.214000;-0.7410;-1.2289;-0.4761;1.512
9.220000;-0.6602;-1.1485;-0.8299;1.563
9.225000;-0.5418;-1.0360;-1.1015;1.606
9.228000;-0.4206;-0.8957;-1.3702;1.690
9.234000;-0.2618;-0.8087;-1.5954;1.808
9.240000;-0.1335;-0.6742;-1.7511;1.881
9.242000;-0.0430;-0.5567;-1.9187;1.998
9.247000;0.0213;-0.4220;-2.0338;2.077
9.284000;0.0886;-0.2820;-2.0751;2.096
9.285000;0.1425;-0.1695;-2.0977;2.109
9.285000;0.1977;-0.1010;-2.0756;2.087
9.285000;0.2427;0.0054;-2.0112;2.026
9.286000;0.2349;0.0443;-1.8806;1.896
9.286000;0.2539;0.0592;-1.7581;1.777
9.287000;0.2428;0.0073;-1.6317;1.650
9.294000;0.2145;-0.0539;-1.5231;1.539
9.295000;0.2029;-0.1844;-1.4104;1.437
9.297000;0.1663;-0.3052;-1.2962;1.342
9.302000;0.1174;-0.4475;-1.2114;1.297
9.306000;-0.0247;-0.5474;-1.1510;1.275
9.311000;-0.1999;-0.6406;-1.1628;1.343
9.317000;-0.4036;-0.7396;-1.1820;1.452
9.322000;-0.5641;-0.8035;-1.1610;1.520
9.326000;-0.7656;-0.8685;-1.1523;1.633
9.331000;-0.8987;-0.9224;-1.1869;1.751
9.336000;-0.9879;-0.9539;-1.1859;1.814
9.341000;-1.0459;-0.9963;-1.1803;1.865
9.346000;-1.0777;-1.0525;-1.1701;1.907
9.350000;-1.0667;-1.0510;-1.1622;1.896
9.396000;-1.0487;-1.0689;-1.1209;1.870
9.397000;-1.0187;-1.0629;-1.0915;1.833
9.397000;-0.9361;-0.9930;-1.0284;1.709
9.398000;-0.9108;-0.9763;-0.9987;1.667
9.398000;-0.8785;-0.8984;-0.9329;1.565
9.398000;-0.7987;-0.8239;-0.8956;1.456
9.399000;-0.7245;-0.7576;-0.8437;1.346
9.399000;-0.6681;-0.6662;-0.7987;1.236
9.399000;-0.6151;-0.5786;-0.7773;1.148
9.401000;-0.5657;-0.5234;-0.7366;1.066
9.406000;-0.5697;-0.4574;-0.6621;0.986
9.409000;-0.5340;-0.3977;-0.6638;0.940
9.414000;-0.5537;-0.3467;-0.6412;0.915
9.419000;-0.5569;-0.2806;-0.6230;0.881
9.424000;-0.6054;-0.2592;-0.5876;0.883
9.428000;-0.6462;-0.2225;-0.6117;0.917
9.434000;-0.7172;-0.1779;-0.6162;0.962
9.440000;-0.8134;-0.1440;-0.6442;1.048
9.443000;-0.9201;-0.0780;-0.6551;1.132
9.448000;-1.0397;-0.0394;-0.7016;1.255
9.491000;-1.1459;0.0055;-0.7454;1.367
9.492000;-1.2461;0.0617;-0.7603;1.461
9.492000;-1.3192;0.1151;-0.7726;1.533
9.493000;-1.3848;0.1345;-0.8183;1.614
9.493000;-1.4434;0.1894;-0.8376;1.680
9.493000;-1.4740;0.2131;-0.8472;1.713
9.494000;-1.5080;0.2606;-0.8592;1.755
9.494000;-1.5002;0.3076;-0.8568;1.755
9.494000;-1.4507;0.4046;-0.8042;1.707
9.497000;-1.3600;0.4438;-0.7396;1.610
9.503000;-1.2716;0.5234;-0.6058;1.503
9.507000;-1.1738;0.6240;-0.4744;1.411
9.513000;-1.0618;0.7146;-0.3240;1.320
9.517000;-0.9385;0.8093;-0.1688;1.251
9.522000;-0.7770;0.8890;-0.0089;1.181
9.527000;-0.6418;0.9822;0.1271;1.180
9.532000;-0.5086;1.0578;0.2824;1.207
9.537000;-0.3603;1.1105;0.3853;1.229
9.542000;-0.2344;1.1571;0.4503;1.264
9.552000;-0.1256;1.1901;0.4942;1.295
9.553000;-0.0422;1.2406;0.4908;1.335
9.581000;0.0208;1.2656;0.4545;1.345
9.581000;0.0694;1.3127;0.3661;1.365
9.581000;0.0847;1.3560;0.2115;1.375
9.582000;0.0915;1.3835;-0.0023;1.387
9.582000;0.0515;1.4221;-0.2347;1.442
9.582000;0.0315;1.3790;-0.4380;1.447
9.586000;0.0261;1.3812;-0.5980;1.505
9.591000;0.0250;1.3146;-0.7412;1.509
9.596000;0.0939;1.2560;-0.7911;1.487
9.600000;0.1383;1.2014;-0.7984;1.449
9.606000;0.1951;1.1053;-0.7463;1.348
9.610000;0.2897;1.0475;-0.6351;1.259
9.615000;0.3519;0.9966;-0.4027;1.131
9.621000;0.3863;0.9676;-0.1068;1.047
9.627000;0.4072;0.9175;0.2023;1.024
9.630000;0.3433;0.8653;0.5725;1.093
9.635000;0.3025;0.8010;0.9227;1.259
9.640000;0.2815;0.7004;1.2838;1.489
9.645000;0.1977;0.6251;1.5319;1.666
9.650000;0.0888;0.5387;1.7628;1.845
9.655000;-0.0679;0.4336;1.9455;1.994
9.660000;-0.2206;0.3047;2.1039;2.137
9.665000;-0.3853;0.1537;2.1834;2.222
9.670000;-0.5231;0.0022;2.2484;2.308
9.674000;-0.6268;-0.1623;2.1605;2.255
9.679000;-0.7778;-0.2804;2.0538;2.214
9.684000;-0.8545;-0.3952;1.8855;2.107
9.739000;-1.0063;-0.4616;1.6484;1.986
9.740000;-1.0899;-0.5298;1.3428;1.809
9.740000;-1.1183;-0.5448;1.0358;1.619
9.741000;-1.1042;-0.5329;0.6698;1.397
9.741000;-1.0537;-0.5130;0.3861;1.234
9.741000;-1.0108;-0.4302;0.1225;1.105
9.741000;-0.9289;-0.3269;-0.1117;0.991
9.742000;-0.8664;-0.2227;-0.2733;0.935
9.742000;-0.7975;-0.0788;-0.4534;0.921
9.742000;-0.7193;0.0756;-0.6208;0.953
9.743000;-0.6723;0.2072;-0.7875;1.056
9.744000;-0.6293;0.3543;-0.6260;0.956
9.747000;-0.5349;0.4999;-1.1812;1.390
9.752000;-0.4319;0.5674;-1.2093;1.404
9.760000;-0.3340;0.6384;-1.3181;1.502
9.764000;-0.1977;0.6843;-1.5028;1.663
9.767000;-0.1041;0.7228;-1.6010;1.760
9.775000;-0.0362;0.7040;-1.6944;1.835
9.776000;0.0085;0.7102;-1.7521;1.891
9.781000;0.0998;0.7060;-1.9082;2.037
9.786000;0.2427;0.6947;-2.0961;2.221
9.815000;0.3896;0.7130;-2.3232;2.461
9.816000;0.5076;0.6519;-2.5301;2.662
9.816000;0.6545;0.5718;-2.7458;2.880
9.816000;0.7131;0.4454;-2.8896;3.009
9.817000;0.8006;0.2851;-2.9257;3.047
9.817000;0.7827;0.0103;-2.8714;2.976
9.822000;0.7521;-0.2369;-2.6792;2.793
9.826000;0.6500;-0.5449;-2.2917;2.444
9.831000;0.5492;-0.8491;-1.7690;2.038
9.835000;0.4311;-1.1265;-1.1873;1.692
9.840000;0.2923;-1.3890;-0.5798;1.533
9.846000;0.0481;-1.6218;0.0803;1.625
9.850000;-0.1868;-1.7992;0.7575;1.961
9.882000;-0.3881;-1.9837;1.4695;2.499
9.885000;-0.6094;-2.1739;2.0470;3.047
9.885000;-0.8127;-2.3509;2.5004;3.527
9.886000;-0.9272;-2.5447;2.9091;3.975
9.886000;-1.0515;-2.7003;3.1711;4.296
9.887000;-1.0888;-2.8067;3.3345;4.492
9.887000;-1.0978;-2.8823;3.3471;4.551
9.893000;-1.0876;-2.9368;3.2998;4.549
9.894000;-1.0127;-2.9494;3.1571;4.438
9.899000;-0.8638;-2.9389;3.0049;4.291
9.904000;-0.6991;-2.9264;2.8096;4.117
9.909000;-0.4812;-2.8293;2.5637;3.848
9.914000;-0.2550;-2.7067;2.2815;3.549
9.919000;-0.0667;-2.5812;2.0414;3.292
9.926000;0.0772;-2.4057;1.8311;3.024
9.929000;0.2145;-2.2029;1.5975;2.730
9.934000;0.3346;-2.0198;1.3620;2.459
9.938000;0.4521;-1.7979;1.1505;2.182
9.980000;0.5892;-1.5892;0.9365;1.936
9.981000;0.7388;-1.4719;0.7341;1.803
9.981000;0.9159;-1.3353;0.5193;1.700
9.982000;1.0758;-1.2172;0.3493;1.662
9.982000;1.1742;-1.1006;0.1403;1.615
9.982000;1.2496;-1.0067;-0.0336;1.605
9.983000;1.2735;-0.9042;-0.2227;1.578
9.984000;1.2315;-0.8219;-0.3481;1.521
9.985000;1.1804;-0.7357;-0.4432;1.460
9.987000;1.1146;-0.6104;-0.5272;1.376
9.992000;1.0792;-0.4992;-0.6094;1.336
9.997000;1.0495;-0.3934;-0.6776;1.310
10.002000;1.0252;-0.3076;-0.7675;1.317
10.008000;1.0323;-0.2407;-0.8168;1.338
10.012000;1.0687;-0.1330;-0.8660;1.382
10.017000;1.0985;-0.0310;-0.8862;1.412
10.023000;1.1385;0.0842;-0.8799;1.441
10.027000;1.2006;0.2018;-0.8729;1.498
10.034000;1.2895;0.2959;-0.8511;1.573
10.036000;1.3669;0.4418;-0.8668;1.678
10.045000;1.4450;0.5823;-0.8077;1.755
10.047000;1.5499;0.6597;-0.8436;1.884
10.054000;1.6220;0.8010;-0.8882;2.015
10.101000;1.6927;0.8866;-0.9393;2.129
10.103000;1.7290;0.9361;-1.0041;2.208
10.104000;1.8028;1.0144;-1.0444;2.317
10.104000;1.7976;1.0908;-1.0578;2.354
10.104000;1.7904;1.1561;-1.0184;2.362
10.105000;1.7431;1.1938;-1.0073;2.341
10.105000;1.6299;1.1732;-0.9960;2.242
10.106000;1.5151;1.1308;-1.0133;2.145
10.106000;1.4014;1.1123;-1.0210;2.060
10.106000;1.2600;1.0316;-1.0884;1.959
10.106000;1.1004;0.9848;-1.1486;1.871
10.109000;0.9585;0.9078;-1.2042;1.787
10.115000;0.8508;0.8364;-1.1786;1.677
10.119000;0.6886;0.7257;-1.1580;1.530
10.125000;0.5526;0.6784;-1.1068;1.411
10.129000;0.4210;0.6113;-1.0297;1.269
10.134000;0.3173;0.5360;-0.9745;1.157
10.163000;0.2892;0.5030;-0.8434;1.024
10.164000;0.2622;0.4521;-0.6648;0.846
10.164000;0.2792;0.4380;-0.4963;0.718
10.164000;0.2853;0.4557;-0.3736;0.655
10.165000;0.2880;0.4665;-0.2750;0.613
10.165000;0.3429;0.4895;-0.1671;0.621
10.168000;0.3190;0.5269;-0.0711;0.620
10.173000;0.3869;0.6043;0.0033;0.718
10.178000;0.4174;0.6740;0.0395;0.794
10.183000;0.4710;0.7261;0.0496;0.867
10.188000;0.5144;0.7988;0.0479;0.951
10.193000;0.5357;0.8441;0.0059;1.000
10.198000;0.5495;0.9028;-0.0454;1.058
10.202000;0.5175;0.9438;-0.1179;1.083
10.208000;0.5186;1.0056;-0.1854;1.147
10.213000;0.5165;1.0644;-0.2145;1.202
10.217000;0.5248;1.1131;-0.1908;1.245
10.224000;0.5620;1.1517;-0.1957;1.296
10.227000;0.5728;1.1924;-0.1862;1.336
10.233000;0.5306;1.2686;-0.1790;1.387
10.237000;0.5022;1.3469;-0.2196;1.454
10.243000;0.4712;1.3982;-0.1931;1.488
10.247000;0.4090;1.4612;-0.1953;1.530
10.252000;0.3588;1.4903;-0.1973;1.545
10.289000;0.2775;1.5139;-0.1753;1.549
10.289000;0.1939;1.5440;-0.1293;1.561
10.289000;0.1555;1.5135;-0.1381;1.528
10.290000;0.0762;1.5132;-0.0941;1.518
10.290000;0.0517;1.5430;-0.0093;1.544
10.290000;0.0098;1.5192;-0.0176;1.519
10.291000;-0.0324;1.5323;0.0127;1.533
10.291000;-0.0653;1.5297;0.0194;1.531
10.295000;-0.0503;1.5257;-0.0262;1.527
10.300000;-0.0637;1.5324;-0.0786;1.536
10.305000;-0.0861;1.5234;-0.1472;1.533
10.311000;-0.0836;1.4988;-0.2418;1.520
10.315000;-0.1635;1.4777;-0.3693;1.532
10.320000;-0.2107;1.4511;-0.4677;1.539
10.327000;-0.2612;1.4215;-0.5706;1.554
10.330000;-0.2744;1.3916;-0.6230;1.549
10.335000;-0.3299;1.3807;-0.6250;1.551
10.341000;-0.3325;1.3582;-0.6486;1.541
10.378000;-0.3158;1.3552;-0.6794;1.548
10.379000;-0.3233;1.3097;-0.6958;1.518
10.379000;-0.3167;1.2863;-0.6790;1.489
10.380000;-0.2868;1.2303;-0.6312;1.412
10.380000;-0.2865;1.1467;-0.5264;1.294
10.380000;-0.2999;1.0905;-0.4125;1.204
10.380000;-0.3035;0.9657;-0.2606;1.045
10.381000;-0.3409;0.8299;-0.0735;0.900
10.384000;-0.2737;0.7114;0.1229;0.772
10.391000;-0.2929;0.6104;0.3474;0.761
10.398000;-0.2760;0.5121;0.5787;0.821
10.399000;-0.3392;0.4527;0.8550;1.025
10.404000;-0.4504;0.3930;1.0379;1.198
10.409000;-0.5370;0.3259;0.9338;1.125
10.414000;-0.6606;0.2200;1.3319;1.503
10.419000;-0.7369;0.0828;1.4215;1.603
10.425000;-0.7107;-0.0525;1.2793;1.464
10.429000;-0.5607;-0.2307;1.2187;1.361
10.433000;-0.3443;-0.3634;1.0340;1.149
10.438000;-0.1193;-0.4687;0.9377;1.055
10.444000;0.0441;-0.5245;0.8913;1.035
10.448000;0.1906;-0.5680;0.8633;1.051
10.453000;0.2927;-0.5697;0.9467;1.143
10.498000;0.4450;-0.4957;1.0790;1.268
10.498000;0.5556;-0.4507;1.1953;1.393
10.499000;0.6050;-0.3983;1.3937;1.571
10.499000;0.5953;-0.4075;1.6475;1.799
10.499000;0.5720;-0.4501;1.9713;2.101
10.500000;0.5091;-0.5527;2.3222;2.441
10.500000;0.4003;-0.6947;2.7075;2.824
10.501000;0.2846;-0.8478;3.0989;3.225
10.501000;0.1013;-1.0469;3.4512;3.608
10.502000;-0.1007;-1.2116;3.7076;3.902
10.506000;-0.3672;-1.3744;3.8851;4.137
10.512000;-0.6731;-1.5143;4.0080;4.337
10.516000;-0.9856;-1.5900;4.0026;4.418
10.521000;-1.2847;-1.6397;3.8642;4.390
10.528000;-1.5410;-1.6861;3.5527;4.224
10.531000;-1.7541;-1.7338;3.1660;4.013
10.536000;-1.8857;-1.7784;2.6782;3.727
10.543000;-1.9844;-1.7739;2.1275;3.407
10.546000;-1.9628;-1.7893;1.5473;3.074
10.551000;-1.9464;-1.6899;1.0019;2.766
10.555000;-1.8921;-1.5371;0.5725;2.504
10.590000;-1.8193;-1.3380;0.1846;2.266
10.590000;-1.6898;-1.1357;-0.1666;2.043
10.591000;-1.5050;-0.9537;-0.4622;1.841
10.591000;-1.2803;-0.7372;-0.6570;1.617
10.591000;-1.0134;-0.5960;-0.7821;1.412
10.592000;-0.7189;-0.4203;-0.8282;1.174
10.592000;-0.4728;-0.3227;-0.8406;1.017
10.594000;-0.2417;-0.1719;-0.8384;0.889
10.599000;-0.0584;-0.0301;-0.8504;0.853
10.604000;0.0991;0.0885;-0.8550;0.865
10.610000;0.2454;0.2030;-0.8569;0.914
10.614000;0.3528;0.3422;-0.9041;1.029
10.619000;0.4408;0.4466;-0.9509;1.139
10.624000;0.5701;0.4688;-0.9735;1.222
10.629000;0.6715;0.4692;-0.9888;1.284
10.633000;0.7696;0.4054;-1.0042;1.329
10.638000;0.8906;0.3090;-0.9958;1.371
10.643000;0.9540;0.1761;-0.9399;1.351
10.648000;0.9811;0.0190;-0.9394;1.358
10.653000;0.9344;-0.1355;-0.8869;1.295
10.685000;0.8306;-0.2920;-0.8422;1.218
10.686000;0.6946;-0.4548;-0.7552;1.122
10.686000;0.5196;-0.5666;-0.6761;1.024
10.686000;0.3663;-0.6994;-0.5858;0.983
10.686000;0.1701;-0.8077;-0.5154;0.973
10.687000;-0.0064;-0.9109;-0.4218;1.004
10.687000;-0.1060;-1.0285;-0.3717;1.099
10.693000;-0.2643;-1.1085;-0.3006;1.179
10.697000;-0.3955;-1.1894;-0.2514;1.278
10.702000;-0.4399;-1.2718;-0.2240;1.364
10.707000;-0.5054;-1.3371;-0.2109;1.445
10.713000;-0.5540;-1.3810;-0.2169;1.504
10.717000;-0.5696;-1.4208;-0.2202;1.546
10.722000;-0.6247;-1.3564;-0.2711;1.518
10.730000;-0.6310;-1.3152;-0.2738;1.484
10.732000;-0.6104;-1.2187;-0.2855;1.393
10.736000;-0.5848;-1.1030;-0.3541;1.298
10.788000;-0.5596;-0.9900;-0.3981;1.205
10.789000;-0.5038;-0.8630;-0.4916;1.114
10.789000;-0.4084;-0.7461;-0.5916;1.036
10.789000;-0.3139;-0.6629;-0.6574;0.985
10.790000;-0.1966;-0.5822;-0.6629;0.904
10.790000;-0.1235;-0.5517;-0.7013;0.901
10.790000;-0.0973;-0.4828;-0.7200;0.872
10.791000;-0.0989;-0.3945;-0.7311;0.837
10.791000;-0.1308;-0.3748;-0.7132;0.816
10.791000;-0.1782;-0.3253;-0.7763;0.860
10.791000;-0.2553;-0.2940;-0.7744;0.867
10.795000;-0.3594;-0.2734;-0.8081;0.926
10.800000;-0.4327;-0.2465;-0.8679;1.001
10.805000;-0.5586;-0.2657;-0.9202;1.109
10.810000;-0.6530;-0.3187;-1.0177;1.250
10.814000;-0.7302;-0.3744;-1.1149;1.384
10.820000;-0.7830;-0.4251;-1.2001;1.495
10.825000;-0.8356;-0.4396;-1.2900;1.599
10.830000;-0.8426;-0.4822;-1.3656;1.675
10.835000;-0.8595;-0.4762;-1.3838;1.697
10.839000;-0.8198;-0.4502;-1.4620;1.736
10.845000;-0.7646;-0.4016;-1.4710;1.706
10.850000;-0.7037;-0.3182;-1.4493;1.642
10.854000;-0.6229;-0.1930;-1.4136;1.557
10.904000;-0.5461;-0.0980;-1.3757;1.483
10.904000;-0.4351;0.0360;-1.2760;1.349
10.905000;-0.2846;0.1683;-1.1934;1.238
10.905000;-0.1498;0.2770;-1.0822;1.127
10.905000;-0.0561;0.3763;-0.9999;1.070
10.905000;0.0780;0.4897;-0.8794;1.010
10.906000;0.2215;0.5978;-0.7614;0.993
10.906000;0.3031;0.6721;-0.6219;0.965
10.906000;0.3469;0.7793;-0.4800;0.979
10.907000;0.3481;0.8452;-0.3764;0.988
10.908000;0.3333;0.9176;-0.2990;1.021
10.913000;0.3238;0.9250;-0.2216;1.005
10.918000;0.3128;0.9415;-0.1871;1.010
10.922000;0.2641;0.9359;-0.1598;0.986
10.928000;0.1945;0.8870;-0.1753;0.925
10.933000;0.1090;0.8497;-0.1644;0.872
10.937000;0.0432;0.8266;-0.1631;0.844
10.978000;-0.0198;0.8082;-0.1258;0.818
10.979000;-0.0302;0.8184;-0.1196;0.828
10.979000;-0.0333;0.8050;-0.0896;0.811
10.980000;-0.0126;0.8062;-0.0620;0.809
10.980000;-0.0086;0.8105;-0.0418;0.812
10.980000;0.0220;0.7795;-0.0146;0.780
10.981000;0.0479;0.7468;0.0028;0.748
10.981000;0.0618;0.7581;0.0869;0.766
10.981000;0.0851;0.7322;0.1252;0.748
10.986000;0.0983;0.7192;0.2277;0.761
10.991000;0.1060;0.7122;0.3131;0.785
10.997000;0.1270;0.7160;0.4601;0.861
11.001000;0.0727;0.7165;0.5827;0.926
11.006000;0.0148;0.7399;0.7598;1.061
11.011000;-0.0562;0.7358;0.9101;1.172
11.016000;-0.1399;0.7281;1.1077;1.333
11.021000;-0.2166;0.7428;1.2379;1.460
11.029000;-0.3218;0.7173;1.3607;1.571
11.032000;-0.4210;0.6804;1.4784;1.681
11.037000;-0.4664;0.6482;1.5338;1.729
11.040000;-0.4911;0.6085;1.5819;1.765
11.087000;-0.5502;0.5873;1.6422;1.829
11.088000;-0.5550;0.6059;1.6500;1.843
11.088000;-0.5751;0.5878;1.6102;1.808
11.088000;-0.5818;0.6448;1.5038;1.737
11.089000;-0.5727;0.6501;1.3836;1.632
11.089000;-0.5769;0.6755;1.2041;1.496
11.089000;-0.5777;0.6971;1.0731;1.404
11.090000;-0.5349;0.7079;0.9568;1.305
11.090000;-0.4698;0.7248;0.6020;1.053
11.090000;-0.4426;0.7004;0.5920;1.018
11.095000;-0.3703;0.6493;0.5487;0.927
11.099000;-0.2606;0.5267;0.5006;0.772
11.104000;-0.1283;0.4066;0.5077;0.663
11.109000;-0.0170;0.2418;0.5218;0.575
11.113000;0.0997;0.0779;0.5788;0.592
11.118000;0.2007;-0.0538;0.5878;0.623
11.123000;0.2847;-0.1937;0.5438;0.644
11.129000;0.3409;-0.3510;0.4635;0.674
11.134000;0.3631;-0.4538;0.3062;0.657
11.138000;0.3261;-0.5158;0.1435;0.627
11.147000;0.2717;-0.5768;-0.0035;0.638
11.149000;0.2024;-0.6030;-0.1516;0.654
11.153000;0.1593;-0.6080;-0.2509;0.677
11.158000;0.0629;-0.6390;-0.3158;0.716
11.204000;0.0083;-0.7119;-0.2725;0.762
11.205000;-0.0802;-0.7498;-0.0972;0.760
11.206000;-0.1444;-0.8457;0.1645;0.874
11.206000;-0.2052;-0.8928;0.4938;1.041
11.206000;-0.2684;-0.9821;0.8527;1.328
11.207000;-0.3588;-1.0246;1.2032;1.621
11.207000;-0.4257;-1.0476;1.5387;1.910
11.207000;-0.5015;-1.0869;1.8358;2.192
11.208000;-0.5516;-1.1243;2.0303;2.385
11.208000;-0.6176;-1.1857;2.2040;2.578
11.212000;-0.6274;-1.2550;2.3043;2.698
11.216000;-0.6810;-1.3266;2.3892;2.816
11.221000;-0.6400;-1.4126;2.3749;2.836
11.226000;-0.5791;-1.4658;2.2378;2.737
11.232000;-0.5769;-1.4523;2.0377;2.568
11.236000;-0.5529;-1.3820;1.8127;2.346
11.241000;-0.5266;-1.3260;1.5103;2.078
11.274000;-0.5056;-1.2942;1.1807;1.823
11.275000;-0.5350;-1.2094;0.8167;1.554
11.275000;-0.5045;-1.1737;0.5472;1.390
11.276000;-0.4143;-1.1408;0.3216;1.256
11.276000;-0.3415;-1.1146;0.1206;1.172
11.276000;-0.3178;-1.1042;-0.0343;1.150
11.277000;-0.2098;-1.0635;-0.2271;1.108
11.282000;-0.1183;-1.0350;-0.3551;1.101
11.286000;-0.0577;-0.9655;-0.5355;1.106
11.290000;0.0272;-0.9098;-0.6274;1.105
11.294000;0.0960;-0.8698;-0.7267;1.137
11.300000;0.1941;-0.7689;-0.7423;1.086
11.305000;0.2523;-0.7074;-0.7679;1.074
11.309000;0.3210;-0.6394;-0.7962;1.070
11.315000;0.3909;-0.5918;-0.7434;1.027
11.319000;0.4168;-0.5382;-0.7293;0.998
11.324000;0.4972;-0.4670;-0.6771;0.961
11.331000;0.5411;-0.4384;-0.6633;0.962
11.334000;0.6040;-0.3834;-0.6615;0.974
11.339000;0.6529;-0.3406;-0.6525;0.984
11.383000;0.6853;-0.2673;-0.6744;0.998
11.384000;0.7325;-0.2140;-0.7081;1.041
11.384000;0.7443;-0.1305;-0.7536;1.067
11.385000;0.7828;-0.1007;-0.8083;1.130
11.385000;0.8243;-0.0459;-0.8914;1.215
11.385000;0.8639;0.0388;-0.9693;1.299
11.385000;0.9041;0.0886;-1.0780;1.410
11.386000;0.9205;0.1107;-1.1552;1.481
11.386000;0.9635;0.1676;-1.2105;1.556
11.388000;0.9805;0.1998;-1.2322;1.587
11.394000;0.9976;0.2668;-1.2894;1.652
11.398000;1.0101;0.3379;-1.3369;1.709
11.403000;1.0066;0.3847;-1.4273;1.788
11.407000;0.9897;0.4142;-1.4888;1.835
11.413000;0.9835;0.4434;-1.5621;1.898
11.417000;0.9406;0.4438;-1.6401;1.942
11.422000;0.9234;0.4298;-1.7156;1.995
11.431000;0.8601;0.3825;-1.7814;2.015
11.432000;0.7747;0.3286;-1.8760;2.056
11.438000;0.6645;0.2562;-1.9920;2.115
11.442000;0.5433;0.1920;-2.0484;2.128
11.489000;0.4495;0.1433;-2.1263;2.178
11.490000;0.3105;0.0909;-2.1352;2.160
11.491000;0.1665;0.0064;-2.1346;2.141
11.491000;0.0381;-0.0457;-2.0985;2.099
11.491000;-0.0822;-0.0774;-2.0436;2.047
11.492000;-0.2070;-0.1077;-1.9724;1.986
11.492000;-0.3291;-0.1537;-1.9253;1.959
11.493000;-0.4202;-0.1892;-1.8021;1.860
11.493000;-0.4562;-0.2096;-1.6911;1.764
11.494000;-0.4228;-0.1963;-1.5373;1.606
11.496000;-0.3747;-0.2022;-1.3551;1.420
11.501000;-0.3046;-0.1702;-1.1921;1.242
11.505000;-0.1904;-0.1289;-1.0174;1.043
11.511000;-0.0843;-0.0594;-0.9216;0.927
11.516000;0.0214;-0.0069;-0.7901;0.790
11.520000;0.1656;0.0975;-0.6634;0.691
11.525000;0.3174;0.1801;-0.5511;0.661
11.530000;0.4723;0.2505;-0.4747;0.715
11.534000;0.5898;0.3305;-0.3985;0.785
11.540000;0.6630;0.4294;-0.3128;0.850
11.550000;0.7469;0.5093;-0.2463;0.937
11.552000;0.8009;0.5772;-0.1847;1.004
11.556000;0.8633;0.6548;-0.1161;1.090
11.560000;0.8721;0.7107;-0.0810;1.128
11.606000;0.8917;0.7786;-0.0770;1.186
11.606000;0.8695;0.8055;-0.0753;1.188
11.607000;0.8127;0.8393;-0.1142;1.174
11.607000;0.7856;0.8989;-0.1314;1.201
11.607000;0.7545;0.9747;-0.1653;1.244
11.607000;0.6954;1.0259;-0.2204;1.259
11.608000;0.6296;1.0599;-0.2682;1.262
11.608000;0.5616;1.1198;-0.2897;1.286
11.608000;0.5218;1.1794;-0.2894;1.322
11.609000;0.4742;1.2341;-0.2558;1.347
11.614000;0.4637;1.3056;-0.1864;1.398
11.618000;0.4541;1.3366;-0.1027;1.415
11.623000;0.4570;1.3485;-0.0026;1.424
11.629000;0.4912;1.3509;0.1023;1.441
11.633000;0.5566;1.3271;0.2451;1.460
11.638000;0.5265;1.3701;0.4285;1.529
11.643000;0.5421;1.4007;0.6451;1.635
11.648000;0.4986;1.4595;0.8352;1.754
11.652000;0.4371;1.4650;1.0754;1.869
11.657000;0.3416;1.5078;1.3442;2.049
11.694000;0.3010;1.5253;1.5890;2.223
11.695000;0.2705;1.5269;1.8411;2.407
11.695000;0.2748;1.5219;2.0358;2.557
11.696000;0.2474;1.4860;2.2404;2.700
11.696000;0.1911;1.4621;2.3593;2.782
11.697000;0.1563;1.4162;2.4452;2.830
11.697000;0.1572;1.4128;2.4838;2.862
11.698000;0.1581;1.4163;2.4227;2.811
11.702000;0.1686;1.3951;2.2955;2.691
11.707000;0.1864;1.4240;2.1142;2.556
11.712000;0.2183;1.4097;1.9170;2.389
11.717000;0.2805;1.4368;1.7683;2.296
11.721000;0.3391;1.5293;1.5893;2.232
11.726000;0.3744;1.6019;1.3629;2.136
11.732000;0.4222;1.6451;1.1491;2.051
11.736000;0.4919;1.6618;1.0075;2.005
11.741000;0.5192;1.6712;0.9450;1.989
11.748000;0.5422;1.7119;0.6079;1.896
11.751000;0.5541;1.6714;0.5319;1.839
11.755000;0.4998;1.5979;0.3962;1.720
11.760000;0.4299;1.4983;0.1653;1.567
11.796000;0.3823;1.3848;0.0160;1.437
11.797000;0.3089;1.2911;-0.0925;1.331
11.797000;0.2277;1.1338;-0.2105;1.175
11.797000;0.1884;1.0036;-0.3236;1.071
11.797000;0.0896;0.8678;-0.3987;0.959
11.798000;0.0313;0.7602;-0.4144;0.866
11.798000;-0.0185;0.6908;-0.5025;0.854
11.799000;-0.0290;0.5829;-0.4884;0.761
11.805000;-0.0246;0.4731;-0.4489;0.653
11.809000;0.0376;0.3303;-0.3387;0.475
11.814000;0.0882;0.1716;-0.1460;0.242
11.819000;0.1078;-0.0028;0.1050;0.151
11.824000;0.1176;-0.1856;0.4048;0.461
11.830000;0.1559;-0.3763;0.6935;0.804
11.835000;0.1875;-0.5369;1.0092;1.158
11.839000;0.1798;-0.6889;1.2494;1.438
11.843000;0.1505;-0.8084;1.5074;1.717
11.851000;0.0945;-0.9124;1.7569;1.982
11.855000;0.0253;-1.0776;1.9624;2.239
11.858000;-0.0124;-1.2253;2.1980;2.516
11.921000;-0.0462;-1.4133;2.3992;2.785
11.921000;-0.1182;-1.5649;2.5733;3.014
11.922000;-0.2620;-1.7096;2.7373;3.238
11.922000;-0.4250;-1.8115;2.8002;3.362
11.923000;-0.6055;-1.8927;2.8460;3.471
11.923000;-0.7657;-1.9082;2.8391;3.505
11.924000;-0.9515;-1.9118;2.8108;3.530
11.924000;-1.1176;-1.8968;2.7039;3.487
11.924000;-1.2498;-1.8514;2.5735;3.408
11.925000;-1.3244;-1.8079;2.3818;3.270
11.925000;-1.3443;-1.7454;2.1170;3.055
11.925000;-1.3429;-1.7050;1.8222;2.834
11.926000;-1.2868;-1.5939;1.4188;2.492
11.927000;-1.2576;-1.5036;0.9836;2.193
11.932000;-1.1192;-1.3722;0.5404;1.851
11.937000;-0.9846;-1.2428;0.1467;1.592
11.942000;-0.8686;-1.1060;-0.1427;1.414
11.949000;-0.7196;-0.9950;-0.4139;1.296
11.951000;-0.5549;-0.8980;-0.7722;1.308
11.956000;-0.3872;-0.8143;-1.0836;1.410
11.961000;-0.2285;-0.7225;-1.4153;1.605
12.002000;-0.0673;-0.6745;-1.7052;1.835
12.003000;0.1060;-0.6198;-1.9439;2.043
12.003000;0.2455;-0.5816;-2.1386;2.230
12.003000;0.4110;-0.5499;-2.3185;2.418
12.004000;0.5637;-0.4998;-2.4286;2.543
12.004000;0.6700;-0.4685;-2.5100;2.640
12.005000;0.7753;-0.4628;-2.5486;2.704
12.005000;0.8676;-0.4080;-2.5683;2.741
12.006000;0.9189;-0.3702;-2.5314;2.718
12.010000;0.9056;-0.3659;-2.5118;2.695
12.015000;0.8598;-0.3683;-2.4882;2.658
12.020000;0.7943;-0.3918;-2.4846;2.638
12.025000;0.6810;-0.4477;-2.4292;2.562
12.033000;0.5494;-0.5124;-2.4393;2.552
12.035000;0.3835;-0.6453;-2.3379;2.455
12.039000;0.2338;-0.7555;-2.2065;2.344
12.044000;0.1048;-0.8696;-2.0570;2.236
12.078000;-0.1045;-0.9945;-1.9707;2.210
12.080000;-0.2268;-1.0900;-1.7753;2.096
12.080000;-0.4018;-1.1873;-1.5547;1.997
12.081000;-0.4862;-1.2748;-1.3565;1.924
12.081000;-0.5906;-1.3264;-1.1592;1.858
12.081000;-0.7509;-1.3282;-0.9244;1.784
12.081000;-0.8405;-1.3092;-0.6042;1.669
12.083000;-0.8592;-1.2895;-0.2845;1.575
12.088000;-0.8863;-1.2575;0.0538;1.539
12.093000;-0.9192;-1.2193;0.3873;1.575
12.098000;-0.8787;-1.1251;0.6968;1.589
12.103000;-0.8312;-1.0598;0.9756;1.663
12.108000;-0.7835;-1.0095;1.1426;1.714
12.113000;-0.7464;-0.9419;1.2506;1.734
12.118000;-0.6449;-0.9073;1.2832;1.699
12.123000;-0.5812;-0.8177;1.2571;1.608
12.128000;-0.4642;-0.7687;1.1724;1.477
12.132000;-0.4016;-0.7435;0.9671;1.284
12.137000;-0.3455;-0.7324;0.7584;1.109
12.142000;-0.2868;-0.6791;0.5220;0.903
12.150000;-0.2904;-0.6337;0.2772;0.750
12.152000;-0.3135;-0.5926;-0.0169;0.671
12.157000;-0.3541;-0.5194;-0.3295;0.710
12.162000;-0.4077;-0.4226;-0.6630;0.886
12.206000;-0.4814;-0.3518;-0.9341;1.108
12.208000;-0.5209;-0.3203;-1.2099;1.356
12.208000;-0.5881;-0.2512;-1.4618;1.596
12.208000;-0.6141;-0.1846;-1.6758;1.794
12.209000;-0.6631;-0.1512;-1.8950;2.013
12.209000;-0.6827;-0.1336;-2.0860;2.199
12.210000;-0.7159;-0.0963;-2.1677;2.285
12.210000;-0.7491;-0.0580;-2.2573;2.379
12.210000;-0.7609;-0.0022;-2.2807;2.404
12.211000;-0.7449;0.0542;-2.2619;2.382
12.217000;-0.7542;0.0968;-2.2272;2.353
12.221000;-0.7676;0.1705;-2.1645;2.303
12.225000;-0.7494;0.2655;-2.0667;2.214
12.232000;-0.7311;0.3193;-1.9313;2.090
12.235000;-0.7363;0.4319;-1.7415;1.939
12.240000;-0.6866;0.5235;-1.5354;1.762
12.246000;-0.6586;0.5823;-1.3227;1.588
12.273000;-0.6238;0.6578;-1.0935;1.420
12.273000;-0.5916;0.7307;-0.8886;1.294
12.273000;-0.5566;0.7575;-0.6957;1.169
12.274000;-0.5047;0.8337;-0.4694;1.082
12.274000;-0.4066;0.8920;-0.1236;0.988
12.274000;-0.3078;0.8989;0.1025;0.956
12.280000;-0.2654;0.9304;0.3001;1.013
12.284000;-0.2743;0.9698;0.4524;1.105
12.289000;-0.2929;0.9859;0.5740;1.178
12.294000;-0.3043;1.0266;0.6623;1.259
12.299000;-0.3270;1.0418;0.7749;1.339
12.305000;-0.3802;1.0366;0.8208;1.376
12.309000;-0.4466;1.0541;0.8717;1.439
12.316000;-0.4549;1.0708;0.9108;1.478
12.320000;-0.5434;1.0677;0.9046;1.501
12.324000;-0.6185;1.0640;0.8843;1.515
12.329000;-0.6824;1.0624;0.8569;1.526
12.334000;-0.7302;1.0797;0.7412;1.499
12.339000;-0.7379;1.0898;0.6496;1.468
12.344000;-0.7390;1.0712;0.5509;1.413
12.350000;-0.7217;1.0954;0.4189;1.377
12.353000;-0.6669;1.1171;0.3374;1.344
12.358000;-0.5986;1.1264;0.1795;1.288
12.409000;-0.5050;1.1328;0.0674;1.242
12.410000;-0.4511;1.1795;-0.0348;1.263
12.410000;-0.3512;1.2469;-0.1033;1.300
12.411000;-0.2799;1.2825;-0.1788;1.325
12.411000;-0.2302;1.3197;-0.1870;1.353
12.412000;-0.1622;1.3467;-0.1305;1.363
12.412000;-0.1028;1.3756;-0.1170;1.384
12.412000;-0.0574;1.3872;-0.0748;1.390
12.412000;0.0332;1.4006;0.0345;1.401
12.413000;0.0514;1.3947;0.0528;1.397
12.413000;0.1259;1.4384;0.2910;1.473
12.417000;0.1542;1.4387;0.5315;1.542
12.422000;0.1482;1.4385;0.5734;1.556
12.426000;0.1301;1.4308;0.7826;1.636
12.433000;0.1024;1.3944;0.9844;1.710
12.436000;0.0206;1.3819;1.1119;1.774
12.441000;-0.0381;1.3047;1.1797;1.759
12.476000;-0.0917;1.2587;1.2522;1.778
12.477000;-0.1752;1.1866;1.3246;1.787
12.477000;-0.1995;1.1074;1.3778;1.779
12.478000;-0.1857;0.9781;1.3879;1.708
12.478000;-0.2027;0.8514;1.4244;1.672
12.478000;-0.1430;0.7130;1.4775;1.647
12.478000;-0.1023;0.5797;1.5424;1.651
12.484000;-0.0833;0.4277;1.5857;1.644
12.485000;0.0071;0.3314;1.6813;1.714
12.491000;0.0818;0.2378;1.7648;1.783
12.495000;0.1405;0.1356;1.8552;1.865
12.501000;0.1946;0.0579;1.9691;1.980
12.505000;0.2223;-0.0407;2.1593;2.171
12.510000;0.3020;-0.1463;2.2441;2.269
12.515000;0.3763;-0.3115;2.3121;2.363
12.521000;0.4360;-0.4529;2.4279;2.508
12.525000;0.5244;-0.5780;2.5891;2.704
12.530000;0.5747;-0.7133;2.7001;2.851
12.535000;0.5777;-0.8418;2.7012;2.888
12.540000;0.5394;-0.9018;2.6237;2.826
12.544000;0.4197;-0.9526;2.6348;2.833
12.553000;0.3242;-0.9965;2.6913;2.888
12.554000;0.2143;-0.9877;2.6618;2.847
12.560000;0.0542;-1.0099;2.6322;2.820
12.612000;-0.0703;-1.0269;2.4711;2.677
12.614000;-0.2045;-1.0458;2.3149;2.548
12.614000;-0.3172;-1.0684;2.0821;2.362
12.615000;-0.4058;-1.0874;1.9449;2.265
12.615000;-0.4488;-1.0600;1.7144;2.065
12.615000;-0.4793;-1.0937;1.4457;1.875
12.615000;-0.5522;-1.1215;1.2273;1.752
12.616000;-0.5670;-1.1243;0.9707;1.590
12.616000;-0.5917;-1.1383;0.7478;1.485
12.616000;-0.5907;-1.1638;0.5157;1.403
12.617000;-0.5412;-1.1674;0.2862;1.318
12.617000;-0.4818;-1.1662;0.1289;1.268
12.622000;-0.4301;-1.1507;-0.0424;1.229
12.627000;-0.3794;-1.1785;-0.2134;1.256
12.637000;-0.2830;-1.1706;-0.3744;1.261
12.637000;-0.2341;-1.1346;-0.4969;1.261
12.642000;-0.1598;-1.1163;-0.6022;1.278
12.718000;-0.0746;-1.0916;-0.7073;1.303
12.720000;-0.0103;-1.0794;-0.7333;1.305
12.721000;0.0714;-1.0417;-0.7711;1.298
12.721000;0.1939;-1.0339;-0.8231;1.336
12.721000;0.3007;-1.0270;-0.9013;1.399
12.722000;0.3802;-1.0280;-0.9887;1.476
12.722000;0.4956;-1.0322;-1.1071;1.593
12.722000;0.6021;-1.0271;-1.1751;1.673
12.723000;0.7217;-1.0224;-1.2788;1.789
12.723000;0.7761;-1.0007;-1.3179;1.828
12.724000;0.8347;-1.0072;-1.3213;1.859
12.724000;0.8569;-1.0221;-1.2987;1.862
12.724000;0.8637;-0.9977;-1.2383;1.810
12.725000;0.8406;-0.9836;-1.1713;1.745
12.725000;0.8449;-0.9467;-1.0667;1.658
12.725000;0.8072;-0.9252;-0.9410;1.547
12.726000;0.7636;-0.9409;-0.8135;1.460
12.730000;0.6738;-0.9485;-0.6817;1.348
12.735000;0.5760;-0.9459;-0.5383;1.231
12.741000;0.4942;-0.9646;-0.3522;1.140
12.745000;0.3760;-0.9645;-0.2450;1.064
12.751000;0.2697;-0.9314;-0.1761;0.986
12.755000;0.1637;-0.8946;-0.1619;0.924
12.760000;0.0970;-0.8569;-0.1902;0.883
12.764000;0.0127;-0.8326;-0.2420;0.867
12.807000;-0.0051;-0.8078;-0.2620;0.849
12.808000;0.0075;-0.7466;-0.3699;0.833
12.808000;0.0482;-0.7036;-0.4962;0.862
12.809000;0.0784;-0.6408;-0.6649;0.927
12.809000;0.1364;-0.6006;-0.8545;1.053
12.809000;0.1599;-0.5280;-1.0770;1.210
12.810000;0.1872;-0.4533;-1.2632;1.355
12.810000;0.1965;-0.3812;-1.3631;1.429
12.810000;0.1996;-0.3016;-1.4247;1.470
12.814000;0.1554;-0.2358;-1.5055;1.532
12.819000;0.1282;-0.1477;-1.6151;1.627
12.824000;0.0297;-0.0756;-1.7655;1.767
12.828000;-0.0807;-0.0549;-1.8324;1.835
12.836000;-0.1764;-0.0593;-1.9378;1.947
12.838000;-0.3077;-0.0886;-2.0005;2.026
12.842000;-0.4220;-0.0974;-2.0300;2.076
12.896000;-0.5487;-0.1216;-2.0456;2.121
12.897000;-0.6688;-0.1325;-2.0807;2.190
12.897000;-0.7923;-0.1280;-2.1400;2.286
12.898000;-0.9095;-0.1151;-2.0706;2.264
12.898000;-0.9996;-0.0771;-2.0519;2.284
12.898000;-1.0700;-0.0522;-1.9501;2.225
12.898000;-1.0781;-0.0097;-1.8463;2.138
12.899000;-1.0007;0.0383;-1.7072;1.979
12.899000;-0.8978;0.1035;-1.4896;1.742
12.899000;-0.7499;0.1740;-1.3084;1.518
12.900000;-0.5856;0.2566;-1.1276;1.296
12.907000;-0.4377;0.3845;-0.9589;1.122
12.908000;-0.2484;0.4957;-0.7786;0.956
12.911000;-0.0527;0.6210;-0.6629;0.910
12.922000;0.1212;0.7076;-0.5831;0.925
12.923000;0.2622;0.8320;-0.5391;1.025
12.926000;0.3613;0.9248;-0.5380;1.129
12.939000;0.5024;0.9720;-0.5010;1.203
12.940000;0.6117;1.0118;-0.5618;1.309
12.942000;0.6987;1.0780;-0.5701;1.405
12.946000;0.7081;1.1279;-0.5330;1.434
12.956000;0.7278;1.1613;-0.4912;1.456
12.957000;0.6929;1.2095;-0.4879;1.477
12.961000;0.6798;1.2631;-0.4680;1.509
12.967000;0.6306;1.2791;-0.4914;1.508
12.971000;0.5719;1.3218;-0.4360;1.505
12.976000;0.5174;1.2863;-0.4023;1.444
12.980000;0.4673;1.3396;-0.3473;1.461
13.031000;0.4119;1.3311;-0.2734;1.420
13.033000;0.3566;1.3492;-0.1470;1.403
13.033000;0.3129;1.3626;-0.0136;1.398
13.034000;0.2904;1.3759;0.0074;1.406
13.034000;0.2606;1.4104;0.0380;1.435
13.034000;0.2293;1.4203;0.0354;1.439
13.034000;0.2037;1.4797;0.0568;1.495
13.035000;0.1650;1.4926;0.1407;1.508
13.035000;0.1541;1.5429;0.1482;1.558
13.035000;0.1734;1.5872;0.1775;1.607
13.035000;0.1682;1.6376;0.2143;1.660
13.039000;0.1550;1.6149;0.2466;1.641
13.044000;0.1144;1.6388;0.2649;1.664
13.049000;0.0721;1.6446;0.2595;1.667
13.054000;0.0162;1.6752;0.1950;1.687
13.058000;-0.0157;1.7187;0.1906;1.729
13.063000;-0.0333;1.7463;0.1460;1.753
13.070000;-0.0155;1.7437;0.1234;1.748
13.073000;0.0563;1.7968;0.1540;1.804
13.078000;0.1315;1.7267;0.2828;1.755
13.135000;0.2914;1.7317;0.0702;1.757
13.137000;0.4021;1.7379;0.1713;1.792
13.138000;0.4731;1.7092;0.2107;1.786
13.138000;0.5691;1.7008;0.1954;1.804
13.138000;0.6449;1.6913;0.2522;1.828
13.139000;0.7054;1.6952;0.2782;1.857
13.139000;0.7485;1.6955;0.3141;1.880
13.140000;0.7535;1.6903;0.3335;1.880
13.140000;0.7686;1.6772;0.3891;1.886
13.140000;0.7967;1.6636;0.4495;1.899
13.141000;0.8141;1.6805;0.4886;1.930
13.141000;0.8164;1.6588;0.4966;1.914
13.142000;0.8111;1.6180;0.5095;1.880
13.146000;0.8154;1.5653;0.5080;1.837
13.152000;0.8221;1.4746;0.5040;1.762
13.157000;0.7885;1.4156;0.5118;1.699
13.161000;0.7358;1.3380;0.5194;1.613
13.169000;0.6974;1.2517;0.5267;1.527
13.171000;0.6255;1.1876;0.5363;1.445
13.176000;0.5460;1.1411;0.5479;1.379
13.181000;0.4759;1.0880;0.5307;1.301
13.223000;0.3696;1.0164;0.5182;1.199
13.224000;0.2730;0.9451;0.4123;1.067
13.224000;0.1957;0.8434;0.2970;0.915
13.224000;0.1497;0.7585;0.1411;0.786
13.225000;0.0823;0.6527;0.0093;0.658
13.225000;0.0719;0.5190;-0.1153;0.537
13.225000;0.0482;0.3914;-0.1517;0.423
13.226000;0.0292;0.2153;-0.1502;0.264
13.226000;0.0562;0.0771;-0.2161;0.236
13.229000;0.0682;-0.0157;-0.1895;0.202
13.236000;0.1137;-0.1369;-0.1208;0.215
13.239000;0.1463;-0.2148;0.0234;0.261
13.244000;0.1841;-0.2875;0.2883;0.447
13.252000;0.2148;-0.3572;0.6116;0.740
13.254000;0.2383;-0.4697;1.0362;1.162
13.259000;0.3456;-0.5939;1.4021;1.561
13.264000;0.4375;-0.7305;1.7167;1.916
13.305000;0.4699;-0.9130;2.0470;2.290
13.306000;0.5285;-1.0820;2.3575;2.647
13.306000;0.5087;-1.2737;2.6315;2.967
13.306000;0.4436;-1.4311;2.8477;3.218
13.307000;0.3247;-1.5762;2.9825;3.389
13.307000;0.1633;-1.7048;3.0337;3.484
13.308000;0.0034;-1.8314;2.9966;3.512
13.308000;-0.1924;-1.8992;2.8811;3.456
13.309000;-0.3613;-1.9852;2.6873;3.361
13.313000;-0.5626;-2.0536;2.4512;3.247
13.318000;-0.6815;-2.0924;2.1585;3.082
13.323000;-0.7946;-2.1374;1.7470;2.873
13.327000;-0.8518;-2.1143;1.3029;2.626
13.336000;-0.8635;-2.1019;0.8621;2.430
13.339000;-0.8424;-2.0063;0.4435;2.221
13.342000;-0.7877;-1.8992;0.0399;2.056
13.347000;-0.7793;-1.7637;-0.3201;1.955
13.389000;-0.7445;-1.6020;-0.6773;1.892
13.390000;-0.6866;-1.5049;-0.9694;1.917
13.391000;-0.6066;-1.3626;-1.2659;1.956
13.391000;-0.5264;-1.2203;-1.4975;2.002
13.391000;-0.4489;-1.0951;-1.6761;2.052
13.391000;-0.3718;-1.0249;-1.8593;2.155
13.392000;-0.2954;-0.9236;-1.9730;2.198
13.392000;-0.2246;-0.8534;-2.0460;2.228
13.394000;-0.1529;-0.8188;-2.0186;2.184
13.397000;-0.0687;-0.7789;-1.9532;2.104
13.401000;-0.0345;-0.7006;-1.8857;2.012
13.407000;-0.0265;-0.6502;-1.7875;1.902
13.411000;-0.0198;-0.6163;-1.6202;1.734
13.416000;-0.0115;-0.6107;-1.4771;1.598
13.421000;-0.0001;-0.6598;-1.3391;1.493
13.426000;-0.0063;-0.7585;-1.2635;1.474
13.431000;-0.0048;-0.8805;-1.2621;1.539
13.438000;0.0148;-1.0159;-1.2371;1.601
13.443000;0.0280;-1.1171;-1.1883;1.631
13.446000;0.0043;-1.2103;-1.0873;1.627
13.503000;-0.0350;-1.2715;-0.9698;1.600
13.504000;-0.1074;-1.2911;-0.8528;1.551
13.504000;-0.1730;-1.3191;-0.8008;1.553
13.505000;-0.2325;-1.2862;-0.7755;1.520
13.505000;-0.2958;-1.2547;-0.7529;1.493
13.505000;-0.3176;-1.2220;-0.6828;1.435
13.506000;-0.3051;-1.2127;-0.5986;1.386
13.506000;-0.2464;-1.1860;-0.4549;1.294
13.506000;-0.2278;-1.0829;-0.3807;1.170
13.506000;-0.2016;-1.0351;-0.2706;1.089
13.507000;-0.1678;-0.9667;-0.1651;0.995
13.507000;-0.1403;-0.8805;-0.1527;0.905
13.509000;-0.1237;-0.7817;-0.1707;0.810
13.513000;-0.1035;-0.7017;-0.1739;0.730
13.519000;-0.0724;-0.6167;-0.1956;0.651
13.524000;-0.0593;-0.5337;-0.2143;0.578
13.529000;-0.0455;-0.4694;-0.2229;0.522
13.534000;-0.0412;-0.4285;-0.2573;0.501
13.539000;-0.0685;-0.3606;-0.3294;0.493
13.543000;-0.1182;-0.2699;-0.4203;0.513
13.548000;-0.1810;-0.2284;-0.4509;0.537
13.554000;-0.2590;-0.1713;-0.5266;0.611
13.558000;-0.3285;-0.1053;-0.5925;0.686
13.563000;-0.3986;-0.0329;-0.6533;0.766
13.613000;-0.4577;0.0080;-0.6877;0.826
13.614000;-0.5078;0.0654;-0.6910;0.860
13.614000;-0.5609;0.1301;-0.7086;0.913
13.614000;-0.5975;0.1876;-0.7621;0.986
13.614000;-0.6415;0.2789;-0.7415;1.019
13.614000;-0.6545;0.3443;-0.7641;1.063
13.615000;-0.6414;0.4102;-0.7367;1.059
13.615000;-0.6573;0.4887;-0.7525;1.112
13.615000;-0.6188;0.5558;-0.6968;1.085
13.615000;-0.5642;0.6020;-0.6772;1.067
13.617000;-0.5418;0.6700;-0.6267;1.065
13.622000;-0.4943;0.7360;-0.5763;1.057
13.627000;-0.4286;0.8140;-0.4783;1.037
13.631000;-0.3927;0.8846;-0.3613;1.033
13.636000;-0.3313;0.9643;-0.2563;1.051
13.641000;-0.2899;1.0531;-0.1298;1.100
13.646000;-0.2611;1.1148;-0.0415;1.146
13.678000;-0.2353;1.1971;0.0469;1.221
13.679000;-0.2073;1.2279;0.0949;1.249
13.679000;-0.1939;1.2960;0.1622;1.320
13.680000;-0.1471;1.3104;0.2058;1.335
13.680000;-0.1575;1.2927;0.2281;1.322
13.680000;-0.1008;1.2908;0.2077;1.311
13.681000;-0.0436;1.2690;0.2210;1.289
13.686000;-0.0097;1.2776;0.2177;1.296
13.690000;0.0013;1.2616;0.1669;1.273
13.694000;0.0110;1.2906;0.1186;1.296
13.699000;0.0054;1.2905;0.0729;1.293
13.706000;-0.0009;1.2835;0.0129;1.284
13.710000;-0.0320;1.2356;-0.0493;1.237
13.714000;-0.0665;1.2479;-0.0518;1.251
13.720000;-0.0711;1.2268;-0.0925;1.232
13.724000;-0.1225;1.2013;-0.1835;1.221
13.730000;-0.1588;1.1857;-0.2386;1.220
13.735000;-0.2330;1.1369;-0.3247;1.205
13.739000;-0.2902;1.0765;-0.3869;1.180
13.744000;-0.3286;1.0281;-0.5948;1.232
13.750000;-0.3701;0.9584;-0.3627;1.089
13.760000;-0.4299;0.8725;-0.2553;1.006
13.761000;-0.4659;0.8247;-0.3177;0.999
13.763000;-0.4788;0.7935;-0.2103;0.950
13.817000;-0.5191;0.7691;-0.1102;0.934
13.818000;-0.5224;0.7441;0.0091;0.909
13.818000;-0.5058;0.7040;0.1667;0.883
13.819000;-0.4806;0.7206;0.3291;0.927
13.819000;-0.3967;0.6789;0.4964;0.930
13.819000;-0.3156;0.6819;0.6254;0.978
13.819000;-0.2414;0.6622;0.7667;1.041
13.819000;-0.1731;0.6656;0.8747;1.113
13.820000;-0.1105;0.6204;1.0092;1.190
13.820000;-0.0383;0.5843;1.1318;1.274
13.820000;-0.0213;0.5547;1.2259;1.346
13.822000;0.0220;0.5272;1.2938;1.397
13.827000;0.0103;0.5041;1.2829;1.378
13.832000;-0.0436;0.4521;1.2269;1.308
13.837000;-0.0579;0.4305;1.1329;1.213
13.842000;-0.0898;0.3916;1.0011;1.079
13.848000;-0.0982;0.3858;0.8721;0.959
13.862000;-0.0976;0.3629;0.7218;0.814
13.868000;-0.0858;0.3734;0.5933;0.706
13.869000;-0.0303;0.4172;0.4602;0.622
13.869000;0.0517;0.4570;0.3654;0.587
13.922000;0.1738;0.5093;0.2968;0.615
13.922000;0.2756;0.6036;0.2734;0.718
13.922000;0.4166;0.7018;0.2567;0.856
13.923000;0.5589;0.7900;0.2251;0.994
13.923000;0.7149;0.8833;0.2596;1.166
13.923000;0.8418;0.9602;0.3170;1.316
13.923000;1.0259;1.0212;0.4068;1.504
13.924000;1.2077;1.0574;0.5046;1.683
13.924000;1.3661;1.0593;0.6226;1.837
13.924000;1.4589;1.0297;0.7723;1.946
13.924000;1.4920;0.9357;0.9440;1.998
13.925000;1.5098;0.8631;1.1258;2.072
13.930000;1.4511;0.6829;1.3844;2.119
13.935000;1.3523;0.5308;1.5911;2.155
13.941000;1.1492;0.3274;1.8272;2.183
13.945000;0.8868;0.0841;2.0069;2.196
13.950000;0.6752;-0.1632;2.1280;2.238
13.956000;0.4109;-0.4206;2.2675;2.343
13.959000;0.1197;-0.6837;2.3469;2.447
13.965000;-0.1924;-0.9393;2.3330;2.522
14.012000;-0.4519;-1.1563;2.2954;2.610
14.014000;-0.6648;-1.3526;2.2465;2.705
14.014000;-0.8218;-1.5026;2.2031;2.790
14.015000;-0.9184;-1.6119;2.0628;2.774
14.015000;-0.9716;-1.7293;1.9191;2.760
14.015000;-0.9741;-1.7716;1.7433;2.670
14.016000;-0.8946;-1.8417;1.5834;2.588
14.016000;-0.7841;-1.9019;1.3271;2.448
14.017000;-0.7072;-1.9089;1.0676;2.299
14.017000;-0.5518;-1.9176;0.7809;2.143
14.019000;-0.4043;-1.9250;0.5196;2.034
14.024000;-0.2702;-1.8617;0.2978;1.905
14.028000;-0.1926;-1.8276;0.0557;1.839
14.033000;-0.1146;-1.7339;-0.1496;1.744
14.038000;-0.0645;-1.6398;-0.4544;1.703
14.043000;-0.0039;-1.5659;-0.7418;1.733
14.048000;0.0704;-1.4999;-1.0238;1.817
14.057000;0.1635;-1.4552;-1.2672;1.937
14.058000;0.2017;-1.3595;-1.5201;2.049
14.063000;0.1805;-1.3168;-1.7398;2.189
14.067000;0.1480;-1.2619;-1.8785;2.268
14.123000;0.0989;-1.2209;-2.0178;2.360
14.124000;0.0948;-1.1861;-2.0645;2.383
14.125000;0.1089;-1.1336;-2.1097;2.397
14.125000;0.1170;-1.0635;-2.0840;2.343
14.126000;0.1615;-1.0289;-1.9777;2.235
14.126000;0.2042;-0.9823;-1.8555;2.109
14.127000;0.2562;-0.9341;-1.7051;1.961
14.127000;0.2913;-0.8825;-1.5003;1.765
14.127000;0.3545;-0.8069;-1.3316;1.597
14.128000;0.3815;-0.7318;-1.1583;1.422
14.128000;0.4466;-0.6221;-1.0303;1.284
14.128000;0.5238;-0.5620;-0.8925;1.178
14.131000;0.5894;-0.5042;-0.7783;1.099
14.137000;0.6581;-0.4154;-0.6971;1.045
14.141000;0.7089;-0.3416;-0.6751;1.037
14.146000;0.7540;-0.2612;-0.6310;1.017
14.151000;0.8682;-0.1863;-0.6076;1.076
14.156000;0.9418;-0.1333;-0.6363;1.144
14.161000;1.0015;-0.0374;-0.6858;1.214
14.166000;1.0690;0.0374;-0.7467;1.305
14.221000;1.1323;0.0963;-0.7858;1.382
14.222000;1.1556;0.1594;-0.8700;1.455
14.222000;1.2491;0.2344;-0.9541;1.589
14.223000;1.2556;0.2743;-1.0167;1.639
14.224000;1.2642;0.3204;-1.0628;1.682
14.224000;1.2349;0.3250;-1.1307;1.706
14.225000;1.1708;0.3222;-1.1750;1.690
14.225000;1.0486;0.2930;-1.2197;1.635
14.226000;0.9306;0.2442;-1.2288;1.561
14.226000;0.7400;0.2384;-1.2120;1.440
14.226000;0.5189;0.1820;-1.1788;1.301
14.227000;0.2980;0.1561;-1.1435;1.192
14.229000;0.1191;0.1100;-1.1108;1.123
14.234000;-0.0899;0.0673;-1.0687;1.075
14.239000;-0.2802;0.0418;-1.0171;1.056
14.243000;-0.4164;0.0281;-0.9799;1.065
14.248000;-0.5280;0.0497;-0.9019;1.046
14.256000;-0.6252;0.0513;-0.8190;1.032
14.259000;-0.7324;0.1186;-0.8293;1.113
14.263000;-0.7444;0.1653;-0.7797;1.091
14.268000;-0.7356;0.2435;-0.7585;1.084
14.323000;-0.6864;0.2935;-0.7849;1.083
14.325000;-0.6111;0.3728;-0.7894;1.066
14.325000;-0.4973;0.4457;-0.7603;1.012
14.326000;-0.3758;0.5101;-0.7956;1.017
14.326000;-0.2248;0.5828;-0.8617;1.064
14.326000;-0.0890;0.6928;-0.9061;1.144
14.326000;0.0795;0.7520;-0.9098;1.183
14.327000;0.2285;0.8155;-0.9636;1.283
14.327000;0.3199;0.8742;-0.9933;1.361
14.327000;0.4258;0.9426;-0.9945;1.435
14.327000;0.4718;1.0258;-0.9933;1.504
14.328000;0.5203;1.0785;-0.9517;1.530
14.332000;0.5306;1.1631;-0.8936;1.560
14.337000;0.5360;1.2196;-0.7998;1.554
14.342000;0.5699;1.2670;-0.6800;1.547
14.346000;0.5671;1.2815;-0.5128;1.492
14.352000;0.5347;1.3030;-0.3481;1.451
14.356000;0.5160;1.3077;-0.2387;1.426
14.361000;0.4608;1.3192;-0.1127;1.402
14.366000;0.4220;1.3156;-0.0559;1.383
14.418000;0.3590;1.3160;0.0009;1.364
14.419000;0.3030;1.3034;0.0626;1.340
14.419000;0.2588;1.3066;0.1149;1.337
14.420000;0.2168;1.3040;0.1793;1.334
14.420000;0.2175;1.3051;0.2032;1.339
14.420000;0.2203;1.3267;0.2225;1.363
14.420000;0.2254;1.3472;0.2253;1.384
14.421000;0.2475;1.3430;0.2856;1.395
14.421000;0.3386;1.3813;0.2981;1.453
14.421000;0.3506;1.3497;0.4948;1.480
14.423000;0.4173;1.3869;0.4117;1.506
14.426000;0.4574;1.4452;0.5487;1.612
14.430000;0.4732;1.4695;0.6761;1.685
14.435000;0.4983;1.5199;0.7913;1.785
14.440000;0.5541;1.4884;0.9305;1.841
14.445000;0.5739;1.4804;1.0815;1.921
14.450000;0.5435;1.4338;1.1870;1.939
14.458000;0.5518;1.4033;1.3141;2.000
14.460000;0.5299;1.3579;1.4102;2.028
14.464000;0.4878;1.3070;1.5447;2.081
14.469000;0.4714;1.2360;1.6004;2.076
14.529000;0.4263;1.1524;1.6087;2.024
14.530000;0.3938;1.0534;1.5552;1.919
14.531000;0.3479;0.9536;1.4878;1.801
14.531000;0.2362;0.8363;1.3374;1.595
14.531000;0.1382;0.7379;1.1827;1.401
14.531000;-0.0512;0.6674;0.9905;1.195
14.532000;-0.2249;0.6780;0.7821;1.059
14.532000;-0.5074;0.6045;0.6173;1.002
14.532000;-0.6779;0.5690;0.4579;0.996
14.532000;-0.8164;0.4519;0.3085;0.983
14.533000;-0.8890;0.3154;0.1786;0.960
14.533000;-0.9015;0.2482;0.1181;0.942
14.533000;-0.8437;0.1519;0.0433;0.858
14.541000;-0.6899;0.0769;-0.0195;0.694
14.542000;-0.5341;0.0399;-0.0898;0.543
14.547000;-0.3281;-0.0019;-0.1578;0.364
14.552000;-0.1627;0.0019;-0.2595;0.306
14.557000;0.0797;-0.0677;-0.3066;0.324
14.562000;0.3010;-0.1165;-0.2947;0.437
14.567000;0.5628;-0.1629;-0.1905;0.616
14.606000;0.7449;-0.2293;0.0149;0.780
14.606000;0.9282;-0.2362;0.2901;1.001
14.607000;1.0408;-0.1682;0.6682;1.248
14.607000;1.0354;-0.0970;1.1084;1.520
14.607000;0.9304;-0.0750;1.5750;1.831
14.607000;0.8038;-0.0578;2.0111;2.167
14.608000;0.7328;-0.1203;2.4003;2.513
14.608000;0.6331;-0.2515;2.8030;2.885
14.611000;0.4613;-0.4410;3.1430;3.207
14.616000;0.2585;-0.6486;3.3538;3.426
14.621000;0.0464;-0.8256;3.4860;3.583
14.626000;-0.2443;-0.9747;3.5063;3.647
14.631000;-0.5509;-1.0326;3.4007;3.596
14.635000;-0.8131;-1.1123;3.2198;3.502
14.641000;-1.0306;-1.2216;2.9494;3.355
14.646000;-1.1968;-1.2839;2.5538;3.099
14.650000;-1.2838;-1.3109;2.1309;2.812
14.659000;-1.3042;-1.3240;1.6880;2.511
14.661000;-1.2525;-1.2821;1.2129;2.164
14.665000;-1.1990;-1.2351;0.7749;1.888
14.669000;-1.1552;-1.1322;0.4358;1.675
14.726000;-1.0910;-1.0231;0.1116;1.500
14.727000;-1.0343;-0.9190;-0.1357;1.390
14.727000;-0.9667;-0.7720;-0.3089;1.275
14.728000;-0.8605;-0.6677;-0.3961;1.159
14.728000;-0.7375;-0.5746;-0.4621;1.043
14.728000;-0.6264;-0.4976;-0.4712;0.928
14.728000;-0.5194;-0.4103;-0.4639;0.808
14.729000;-0.4439;-0.3365;-0.4666;0.727
14.729000;-0.3408;-0.3244;-0.4909;0.680
14.729000;-0.3135;-0.2856;-0.5368;0.684
14.729000;-0.2838;-0.3253;-0.5946;0.735
14.730000;-0.3031;-0.3697;-0.6855;0.836
14.733000;-0.3829;-0.4497;-0.8264;1.016
14.739000;-0.4775;-0.5316;-1.0673;1.284
14.744000;-0.6159;-0.6366;-1.2841;1.560
14.748000;-0.7430;-0.7190;-1.4982;1.820
14.753000;-0.8496;-0.7954;-1.7024;2.062
14.758000;-0.9412;-0.8301;-1.9209;2.294
14.763000;-0.9998;-0.9090;-2.1033;2.500
14.768000;-1.0676;-0.9437;-2.2283;2.645
14.825000;-1.1143;-0.9507;-2.3774;2.792
14.826000;-1.1460;-0.9230;-2.4980;2.899
14.826000;-1.1274;-0.9011;-2.5304;2.913
14.827000;-1.1027;-0.8399;-2.5010;2.859
14.827000;-1.0339;-0.7564;-2.4268;2.744
14.827000;-0.9312;-0.6744;-2.2575;2.533
14.828000;-0.8377;-0.5874;-2.0553;2.296
14.828000;-0.7558;-0.4885;-1.8609;2.067
14.828000;-0.6897;-0.3828;-1.6166;1.799
14.829000;-0.6174;-0.2660;-1.3513;1.509
14.829000;-0.5436;-0.1838;-1.1220;1.260
14.829000;-0.5077;-0.1080;-0.9215;1.058
14.831000;-0.4517;-0.0193;-0.7496;0.875
14.836000;-0.4221;0.0244;-0.6038;0.737
14.841000;-0.4040;0.0781;-0.5103;0.656
14.846000;-0.4134;0.0966;-0.4690;0.633
14.851000;-0.4669;0.1134;-0.4846;0.682
14.859000;-0.5282;0.1051;-0.4903;0.728
14.861000;-0.6045;0.1128;-0.5196;0.805
14.865000;-0.6625;0.1221;-0.5319;0.858
14.870000;-0.7150;0.1192;-0.5345;0.901
14.933000;-0.7361;0.1329;-0.4821;0.890
14.934000;-0.7556;0.1586;-0.4728;0.905
14.934000;-0.7717;0.1172;-0.4421;0.897
14.934000;-0.7606;0.1548;-0.4808;0.913
14.934000;-0.7486;0.1639;-0.4430;0.885
14.935000;-0.7138;0.2068;-0.3792;0.834
14.935000;-0.6901;0.2498;-0.3585;0.817
14.935000;-0.6553;0.2760;-0.3690;0.801
14.935000;-0.6118;0.3163;-0.3149;0.757
14.936000;-0.5443;0.3540;-0.2392;0.692
14.936000;-0.4646;0.3985;-0.1850;0.639
14.936000;-0.3741;0.4711;-0.1116;0.612
14.937000;-0.3041;0.5264;-0.0286;0.609
14.941000;-0.2754;0.5835;-0.0052;0.645
14.944000;-0.2595;0.6134;0.0494;0.668
14.949000;-0.2202;0.6710;0.0422;0.708
14.953000;-0.1725;0.7300;0.0519;0.752
14.959000;-0.1594;0.7830;0.0476;0.800
14.964000;-0.1385;0.7989;0.0722;0.814
14.969000;-0.0862;0.8328;0.0947;0.843
15.027000;-0.0488;0.9540;0.1222;0.963
15.028000;0.0094;1.0166;0.1474;1.027
15.028000;0.0476;1.0900;0.1203;1.098
15.028000;0.0972;1.1934;0.0719;1.200
15.029000;0.1416;1.2694;0.0119;1.277
15.029000;0.1787;1.3301;-0.0598;1.343
15.029000;0.2330;1.3661;-0.1265;1.392
15.029000;0.2904;1.4180;-0.2311;1.466
15.030000;0.3344;1.4214;-0.3305;1.497
15.030000;0.3461;1.4102;-0.4345;1.516
15.030000;0.3802;1.4298;-0.5048;1.563
15.030000;0.4034;1.4352;-0.5942;1.605
15.032000;0.4228;1.3981;-0.6523;1.600
15.037000;0.4168;1.4022;-0.7488;1.643
15.042000;0.4215;1.3523;-0.8501;1.652
15.047000;0.4031;1.2989;-0.8989;1.630
15.052000;0.4118;1.2137;-0.9672;1.606
15.059000;0.3707;1.1351;-0.9664;1.536
15.062000;0.3656;1.0560;-0.9685;1.479
15.066000;0.3554;0.9476;-0.8825;1.343
15.071000;0.3157;0.7860;-0.7947;1.161
15.126000;0.2315;0.6026;-0.5904;0.875
15.127000;0.1452;0.5049;-0.6258;0.817
15.127000;0.0468;0.3917;-0.4058;0.566
15.127000;-0.0619;0.2632;-0.1124;0.293
15.128000;-0.1667;0.1502;0.0704;0.235
15.128000;-0.2535;0.0765;0.3507;0.439
15.128000;-0.3220;-0.0108;0.5516;0.639
15.129000;-0.4271;-0.0712;0.8214;0.929
15.129000;-0.5203;-0.1120;1.0980;1.220
15.129000;-0.6183;-0.1190;1.2905;1.436
15.129000;-0.7105;-0.1140;1.5234;1.685
15.131000;-0.8591;-0.1357;1.7730;1.975
15.135000;-0.9199;-0.1296;1.8960;2.111
15.141000;-0.9502;-0.1367;2.0430;2.257
15.144000;-0.9898;-0.1744;2.0877;2.317
15.150000;-0.9165;-0.1859;2.0661;2.268
15.155000;-0.7865;-0.2572;1.9305;2.100
15.160000;-0.6112;-0.3005;1.7766;1.903
15.165000;-0.4209;-0.2673;1.6069;1.682
15.169000;-0.2612;-0.2460;1.3854;1.431
15.227000;-0.1296;-0.1998;1.2218;1.245
15.228000;-0.0293;-0.1043;1.0467;1.052
15.229000;-0.0160;0.0200;0.9219;0.922
15.229000;0.0050;0.1210;0.8066;0.816
15.229000;-0.0144;0.2497;0.7055;0.749
15.229000;-0.0148;0.3610;0.6256;0.722
15.230000;0.0372;0.4030;0.5859;0.712
15.230000;0.1341;0.4452;0.5981;0.758
15.230000;0.2899;0.3803;0.6527;0.809
15.230000;0.4850;0.2875;0.7376;0.928
15.231000;0.6186;0.1216;0.8503;1.059
15.231000;0.7934;-0.0717;1.0147;1.290
15.233000;0.8993;-0.2253;1.2259;1.537
15.238000;0.9245;-0.3729;1.4696;1.776
15.243000;0.9483;-0.4790;1.7340;2.034
15.248000;0.8919;-0.5177;2.0166;2.265
15.253000;0.7826;-0.5519;2.1600;2.363
15.260000;0.6326;-0.5771;2.4152;2.562
15.262000;0.4858;-0.6013;2.6628;2.773
15.267000;0.3424;-0.6466;2.9436;3.033
15.272000;0.2177;-0.7069;3.1096;3.196
15.311000;0.0993;-0.7923;3.2469;3.344
15.311000;-0.0028;-0.9016;3.3130;3.434
15.312000;-0.0577;-1.0188;3.2721;3.428
15.312000;-0.0986;-1.1305;3.1270;3.326
15.312000;-0.1349;-1.2393;2.8920;3.149
15.313000;-0.1423;-1.2959;2.6057;2.914
15.313000;-0.1283;-1.3433;2.2371;2.613
15.313000;-0.0473;-1.2953;1.8722;2.277
15.316000;0.0049;-1.2859;1.4848;1.964
15.321000;0.0833;-1.2590;1.0937;1.670
15.327000;0.2232;-1.1929;0.6991;1.401
15.331000;0.3717;-1.1224;0.2743;1.214
15.336000;0.4763;-1.0710;-0.1423;1.181
15.342000;0.6062;-0.9897;-0.5845;1.299
15.346000;0.7594;-0.9377;-1.0142;1.576
15.350000;0.9049;-0.8708;-1.3790;1.865
15.355000;1.0115;-0.8413;-1.6504;2.111
15.393000;1.0883;-0.7549;-1.9244;2.336
15.394000;1.1472;-0.6904;-2.1507;2.533
15.394000;1.1633;-0.6017;-2.3104;2.656
15.395000;1.1340;-0.5004;-2.3845;2.687
15.395000;1.0869;-0.3745;-2.4449;2.702
15.395000;1.0864;-0.2739;-2.4438;2.688
15.396000;1.0149;-0.1726;-2.4147;2.625
15.396000;0.9679;-0.1185;-2.3456;2.540
15.399000;0.9311;-0.0928;-2.1934;2.385
15.404000;0.8687;-0.0459;-2.0657;2.241
15.409000;0.8003;-0.0429;-1.9505;2.109
15.414000;0.7407;-0.0486;-1.8474;1.991
15.419000;0.6881;-0.0684;-1.7589;1.890
15.425000;0.5882;-0.0335;-1.6203;1.724
15.430000;0.4891;-0.0524;-1.5556;1.632
15.434000;0.3528;-0.0583;-1.5003;1.542
15.439000;0.2606;-0.0684;-1.5236;1.547
15.448000;0.1285;-0.0848;-1.5179;1.526
15.449000;0.0565;-0.0792;-1.5356;1.539
15.454000;-0.0039;-0.0898;-1.5266;1.529
15.461000;-0.0508;-0.1117;-1.6103;1.615
15.464000;-0.0701;-0.1183;-1.6243;1.630
15.468000;-0.0646;-0.0855;-1.6856;1.689
15.531000;-0.0820;-0.1017;-1.7490;1.754
15.532000;-0.0863;-0.0708;-1.7786;1.782
15.532000;-0.0627;-0.0502;-1.8151;1.817
15.533000;0.0058;-0.0013;-1.8371;1.837
15.533000;0.0290;0.0356;-1.8949;1.895
15.533000;0.0554;0.0368;-1.9217;1.923
