time;ax;ay;az;aT
0.002000;-0.1724;0.1181;-1.0430;1.064
0.003000;-0.0961;0.0254;-0.7268;0.734
0.003000;0.0106;-0.0424;-0.3607;0.363
0.010000;0.0500;-0.0699;0.0076;0.086
0.012000;0.0413;-0.1532;0.4066;0.436
0.017000;0.0886;-0.1508;0.9186;0.935
0.022000;0.1725;-0.1781;1.3510;1.374
0.027000;0.2525;-0.2289;1.6316;1.667
0.032000;0.2542;-0.3012;1.7105;1.755
0.037000;0.2290;-0.3713;1.5972;1.656
0.043000;0.1429;-0.4272;1.2964;1.372
0.047000;0.0471;-0.4141;0.9308;1.020
0.055000;-0.0125;-0.3720;0.4869;0.613
0.057000;-0.0574;-0.2487;0.1049;0.276
0.061000;-0.0613;-0.1057;-0.1519;0.195
0.066000;-0.0177;-0.0231;-0.3562;0.357
0.071000;0.0298;0.0686;-0.4990;0.505
0.076000;0.0876;0.1433;-0.5810;0.605
0.081000;0.1293;0.2039;-0.6149;0.661
0.085000;0.1947;0.2244;-0.5965;0.666
0.091000;0.2146;0.2314;-0.5191;0.607
0.095000;0.2201;0.1800;-0.4189;0.506
0.101000;0.1967;0.1561;-0.3671;0.445
0.106000;0.1115;0.1970;-0.3231;0.394
0.111000;0.0266;0.2146;-0.3269;0.392
0.115000;-0.0510;0.2639;-0.3070;0.408
0.120000;-0.0526;0.2142;-0.3348;0.401
0.126000;-0.0764;0.2466;-0.3600;0.443
0.130000;-0.0272;0.2109;-0.3874;0.442
0.135000;0.0021;0.1885;-0.4193;0.460
0.141000;0.0169;0.1553;-0.4130;0.442
0.145000;0.0055;0.1277;-0.3807;0.402
0.150000;-0.0387;0.1079;-0.3749;0.392
0.154000;-0.0562;0.0908;-0.3051;0.323
0.166000;-0.0754;0.0788;-0.2146;0.241
0.169000;-0.1033;0.0598;-0.1108;0.163
0.170000;-0.0898;0.0571;-0.0150;0.108
0.178000;-0.0874;0.0705;0.0301;0.116
0.179000;-0.0981;0.0807;0.0227;0.129
0.184000;-0.1313;0.0732;-0.0012;0.150
0.189000;-1.1182;1.2747;-0.3142;1.725
0.196000;-1.0750;0.7337;0.1299;1.308
0.199000;-0.8749;0.2388;0.0814;0.911
0.203000;-0.5089;0.0362;-0.0567;0.513
0.208000;-0.3250;-0.0280;-0.0939;0.339
0.215000;-0.3367;0.0339;-0.1285;0.362
0.218000;-0.3222;0.0571;-0.1864;0.377
0.223000;-0.3369;0.0611;-0.2321;0.414
0.229000;-0.3875;0.1295;-0.2679;0.489
0.233000;-0.4195;0.1552;-0.2915;0.534
0.238000;-0.2910;0.1153;-0.3246;0.451
0.243000;-0.1722;0.0670;-0.3432;0.390
0.248000;-0.0747;-0.0037;-0.4116;0.418
0.253000;0.0301;-0.0916;-0.4581;0.468
0.260000;0.0853;-0.1799;-0.4355;0.479
0.263000;0.1526;-0.2307;-0.3776;0.468
0.268000;0.2040;-0.2777;-0.3202;0.470
0.273000;0.2471;-0.3257;-0.2372;0.473
0.280000;0.2847;-0.3278;-0.2521;0.502
0.282000;0.2934;-0.3297;-0.2290;0.497
0.287000;0.2713;-0.3266;-0.2226;0.479
0.292000;0.2976;-0.3306;-0.1854;0.482
0.297000;0.3055;-0.3204;-0.1414;0.465
0.301000;0.3163;-0.3177;-0.0691;0.454
0.307000;0.3302;-0.2868;-0.0021;0.437
0.311000;0.3231;-0.2282;0.0764;0.403
0.316000;0.2569;-0.2088;0.1447;0.361
0.321000;0.2172;-0.1929;0.2221;0.366
0.326000;0.1775;-0.1545;0.1873;0.301
0.331000;0.1737;-0.0886;0.2050;0.283
0.336000;0.1296;-0.1379;0.4412;0.480
0.341000;-0.1180;-0.1689;0.3289;0.388
0.346000;-0.0258;-0.0748;0.3291;0.338
0.351000;0.1349;-0.0321;0.2793;0.312
0.356000;0.1713;-0.0687;0.1753;0.255
0.360000;0.1672;-0.0936;0.1243;0.228
0.367000;0.2130;-0.1589;0.0902;0.281
0.370000;0.2821;-0.1951;0.0468;0.346
0.376000;0.3481;-0.2472;0.0370;0.429
0.380000;0.4443;-0.2722;0.0487;0.523
0.385000;0.4848;-0.3368;0.0413;0.592
0.391000;0.4225;-0.3884;0.0743;0.579
0.395000;0.3671;-0.3890;0.1499;0.556
0.400000;0.2948;-0.3984;0.2060;0.537
0.405000;0.2771;-0.3786;0.2713;0.542
0.410000;0.2160;-0.3039;0.3385;0.504
0.415000;0.1804;-0.2297;0.3791;0.479
0.419000;0.1706;-0.2063;0.4100;0.490
0.424000;-0.1301;-0.1097;0.5619;0.587
0.429000;-0.2768;-0.1048;0.6678;0.730
0.435000;-0.1434;0.0041;0.4091;0.434
0.439000;-0.1889;0.0729;0.4827;0.523
0.444000;-0.2600;0.1236;0.4892;0.568
0.449000;-0.2705;0.1682;0.4196;0.527
0.455000;-0.2659;0.1663;0.4051;0.512
0.460000;-0.3678;0.2182;0.3622;0.560
0.464000;-0.4064;0.3426;0.2411;0.584
0.468000;-0.1586;0.3442;0.1730;0.417
0.473000;-0.0120;0.3026;0.0150;0.303
0.478000;0.0170;0.2210;-0.1279;0.256
0.483000;0.0600;0.1716;-0.2509;0.310
0.487000;0.0907;0.1378;-0.3113;0.352
0.495000;0.1281;0.1462;-0.3167;0.372
0.498000;0.1411;0.1606;-0.3483;0.409
0.502000;0.1226;0.1904;-0.3106;0.384
0.508000;0.0825;0.1807;-0.2376;0.310
0.513000;0.0306;0.1628;-0.1863;0.249
0.517000;-0.0427;0.1838;-0.1044;0.216
0.522000;-0.0921;0.2196;-0.0348;0.241
0.527000;-0.1224;0.2053;0.0201;0.240
0.534000;-0.1618;0.1981;0.0580;0.262
0.537000;-0.1672;0.2144;0.0481;0.276
0.545000;-0.1602;0.2016;0.0526;0.263
0.550000;-0.1906;0.1690;0.0500;0.260
0.553000;-0.1816;0.2026;0.0331;0.274
0.557000;-0.2074;0.1496;0.0591;0.262
0.565000;-0.2082;0.1462;0.0874;0.269
0.566000;-0.2393;0.1396;0.1156;0.300
0.571000;-0.2553;0.1252;0.1508;0.322
0.576000;-0.2517;0.1218;0.1430;0.314
0.582000;-0.2718;0.1128;0.1424;0.327
0.586000;-0.2633;0.1295;0.1156;0.315
0.591000;-0.2959;0.1123;0.0342;0.318
0.596000;-0.2525;0.0734;-0.0421;0.266
0.600000;-0.2406;0.0324;-0.0966;0.261
0.605000;-0.2052;-0.0011;-0.1579;0.259
0.610000;-0.1749;-0.0077;-0.1808;0.252
0.616000;-0.1616;-0.0136;-0.1632;0.230
0.620000;-0.1131;-0.0188;-0.1504;0.189
0.625000;-0.0890;-0.0186;-0.1091;0.142
0.630000;-0.0416;-0.0227;-0.0728;0.087
0.635000;-0.0236;0.0047;-0.0510;0.056
0.640000;-0.0088;-0.0179;-0.0340;0.039
0.645000;-0.0087;-0.0352;-0.0148;0.039
0.650000;-0.0540;-0.0616;0.0257;0.086
0.655000;-0.0610;-0.0282;0.0423;0.079
0.661000;-0.0869;-0.0450;0.0635;0.117
0.664000;-0.1292;-0.0547;0.1061;0.176
0.669000;-0.1330;-0.0407;0.1318;0.192
0.674000;-0.1296;-0.0250;0.1550;0.204
0.679000;-0.1571;-0.0287;0.1281;0.205
0.684000;-0.2130;-0.0591;0.0846;0.237
0.689000;-0.2202;-0.0512;0.0483;0.231
0.694000;-0.2415;-0.0603;0.0337;0.251
0.699000;-0.2511;-0.0978;-0.0116;0.270
0.703000;-0.2464;-0.0615;-0.0685;0.263
0.710000;-0.2418;-0.0751;-0.1130;0.277
0.714000;-0.2161;-0.0906;-0.1239;0.265
0.718000;-0.1885;-0.0986;-0.1205;0.245
0.723000;-0.1685;-0.1038;-0.1622;0.256
0.728000;-0.1035;-0.0730;-0.1609;0.205
0.735000;-0.0772;-0.0943;-0.1548;0.197
0.738000;-0.0489;-0.0725;-0.1583;0.181
0.745000;0.0050;-0.0671;-0.1499;0.164
0.748000;0.0346;-0.0830;-0.1273;0.156
0.753000;0.0258;-0.0819;-0.1311;0.157
0.758000;0.0837;-0.1042;-0.1490;0.200
0.763000;0.0866;-0.1001;-0.1146;0.175
0.767000;0.0966;-0.0866;-0.0662;0.146
0.772000;0.1471;-0.1276;-0.0586;0.203
0.777000;0.1477;-0.1542;0.0012;0.214
0.783000;0.1914;-0.1526;0.0273;0.246
0.787000;0.1876;-0.1586;0.0342;0.248
0.796000;0.2008;-0.1769;0.0055;0.268
0.797000;0.2000;-0.1673;-0.0183;0.261
0.801000;0.1760;-0.1298;-0.0418;0.223
0.807000;0.1807;-0.1072;-0.0865;0.227
0.815000;0.1262;-0.0898;-0.1641;0.226
0.816000;0.1527;-0.0919;-0.2172;0.281
0.821000;0.1101;-0.0631;-0.2937;0.320
0.827000;0.1247;-0.0414;-0.3742;0.397
0.831000;0.1341;-0.0336;-0.4446;0.466
0.836000;0.1125;0.0056;-0.4860;0.499
0.840000;0.1055;-0.0047;-0.4890;0.500
0.845000;0.1032;-0.0188;-0.4683;0.480
0.851000;0.1200;-0.0343;-0.4383;0.456
0.856000;0.1298;-0.0349;-0.4085;0.430
0.861000;0.1417;-0.0538;-0.3172;0.352
0.865000;0.1227;-0.0792;-0.2434;0.284
0.870000;0.1711;-0.0855;-0.1399;0.237
0.876000;0.2145;-0.0821;-0.0702;0.240
0.880000;0.2268;-0.1145;-0.0055;0.254
0.885000;0.2509;-0.1040;0.0398;0.274
0.889000;0.2367;-0.1391;0.0564;0.280
0.898000;0.2582;-0.1695;0.0586;0.314
0.899000;0.2774;-0.1597;0.0370;0.322
0.904000;0.2631;-0.1644;0.0059;0.310
0.909000;0.2062;-0.1931;-0.0394;0.285
0.914000;0.2165;-0.1789;-0.0225;0.282
0.920000;0.2221;-0.1885;-0.0200;0.292
0.925000;0.2228;-0.1431;0.0255;0.266
0.929000;0.2175;-0.1401;0.0490;0.263
0.935000;0.1692;-0.0918;0.0676;0.204
0.939000;0.1779;-0.0486;0.0908;0.206
0.945000;0.1361;-0.0366;0.0711;0.158
0.949000;0.0965;-0.0248;0.0824;0.129
0.953000;0.0639;-0.0175;0.0437;0.079
0.958000;0.0597;-0.0198;0.0480;0.079
0.963000;0.0791;0.0255;0.0761;0.113
0.968000;0.1001;0.0467;0.0825;0.138
0.978000;0.1229;0.0249;0.0438;0.133
0.979000;0.1310;0.0293;-0.0065;0.134
0.982000;0.1130;0.0292;-0.0183;0.118
0.987000;0.0764;0.0554;-0.0040;0.094
0.994000;0.0475;0.0578;0.0197;0.077
0.997000;0.0168;0.0839;0.0599;0.104
1.002000;0.0390;0.1148;0.0736;0.142
1.007000;0.0114;0.0858;0.1180;0.146
1.012000;0.0174;0.0734;0.1384;0.158
1.018000;-0.0097;0.0442;0.1823;0.188
1.022000;-0.0271;0.0177;0.1950;0.198
1.026000;-0.0090;-0.0088;0.2361;0.236
1.034000;-0.0103;-0.0256;0.2460;0.248
1.037000;-0.0143;-0.0403;0.2676;0.271
1.042000;-0.0303;-0.0364;0.2606;0.265
1.046000;-0.0537;-0.0114;0.2370;0.243
1.051000;-0.0794;0.0199;0.2279;0.242
1.056000;-0.0741;0.0295;0.1500;0.170
1.062000;-0.0665;0.0505;0.0941;0.126
1.066000;-0.0637;0.0712;0.0624;0.114
1.073000;-0.0488;0.0657;0.0167;0.084
1.078000;-0.0955;0.0913;-0.0191;0.133
1.081000;-0.0891;0.0859;-0.0759;0.145
1.086000;-0.0610;0.1022;-0.0563;0.132
1.090000;-0.0901;0.1022;-0.0678;0.152
1.096000;-0.1163;0.1050;-0.0458;0.163
1.100000;-0.1161;0.1296;-0.1878;0.256
1.105000;-0.1252;0.1069;0.0178;0.166
1.114000;-0.1008;0.1015;-0.0251;0.145
1.115000;-0.0953;0.0774;0.0416;0.130
1.120000;-0.0732;0.0679;0.0603;0.117
1.124000;-0.0439;0.0611;0.1002;0.125
1.131000;-0.0666;0.0542;0.1540;0.176
1.134000;-0.0699;0.0093;0.1717;0.186
1.140000;-0.0989;0.0334;0.2131;0.237
1.145000;-0.1061;0.0286;0.2636;0.286
1.149000;-0.1269;0.0494;0.2781;0.310
1.154000;-0.1827;0.0436;0.3185;0.370
1.159000;-0.2119;0.0540;0.3136;0.382
1.165000;-0.2574;0.0591;0.3134;0.410
1.170000;-0.2647;0.0804;0.3156;0.420
1.175000;-0.2649;0.0893;0.2846;0.399
1.179000;-0.2793;0.1027;0.2681;0.401
1.184000;-0.2960;0.1086;0.2256;0.388
1.188000;-0.3099;0.0927;0.1858;0.373
1.194000;-0.3116;0.0908;0.1535;0.359
1.198000;-0.3436;0.1031;0.1167;0.377
1.203000;-0.3897;0.1223;0.0826;0.417
1.207000;-0.4281;0.1483;0.0749;0.459
1.213000;-0.4827;0.1670;0.0649;0.515
1.218000;-0.5082;0.1905;0.0431;0.544
1.222000;-0.5314;0.1926;0.0761;0.570
1.228000;-0.5165;0.1946;0.0637;0.556
1.232000;-0.4903;0.1919;0.0538;0.529
1.237000;-0.4767;0.1806;0.0346;0.511
1.242000;-0.4853;0.1647;0.0322;0.514
1.251000;-0.4900;0.1822;0.0417;0.524
1.255000;-0.5075;0.1929;0.0344;0.544
1.258000;-0.4809;0.1943;0.0008;0.519
1.263000;-0.4172;0.2243;-0.0398;0.475
1.268000;-0.3499;0.2021;-0.0708;0.410
1.271000;-0.3504;0.1637;-0.0660;0.392
1.277000;-0.3420;0.1378;-0.0326;0.370
1.286000;-0.3201;0.1076;0.0198;0.338
1.287000;-0.3061;0.0777;0.0744;0.324
1.297000;-0.2596;0.0790;0.0811;0.283
1.299000;-0.2042;0.1112;0.1164;0.260
1.302000;-0.1542;0.1096;0.0943;0.211
1.306000;-0.0853;0.1028;0.0866;0.159
1.311000;-0.0382;0.0575;0.0694;0.098
1.316000;-0.0315;0.0047;0.0403;0.051
1.321000;0.0137;-0.0170;0.0423;0.048
1.326000;0.0712;-0.0320;0.0587;0.098
1.332000;0.0977;-0.0353;0.0821;0.132
1.336000;0.1101;-0.0415;0.0698;0.137
1.341000;0.1181;-0.0460;0.0431;0.134
1.347000;0.1264;-0.0129;0.0166;0.128
1.355000;0.1061;-0.0207;-0.0242;0.111
1.356000;0.0691;-0.0143;-0.0888;0.113
1.371000;0.0728;0.0207;-0.1317;0.152
1.372000;0.0740;0.0129;-0.1482;0.166
1.372000;0.0867;0.0342;-0.2004;0.221
1.375000;0.0943;0.0510;-0.2024;0.229
1.381000;0.0734;0.0516;-0.2068;0.225
1.385000;0.0362;0.0478;-0.1658;0.176
1.389000;0.0491;0.0300;-0.1512;0.162
1.396000;0.0315;0.0366;-0.1151;0.125
1.399000;0.0476;0.0149;-0.0743;0.090
1.406000;0.0306;-0.0135;-0.0122;0.036
1.411000;0.0543;-0.0128;0.0259;0.062
1.414000;0.0590;-0.0526;0.0783;0.111
1.420000;0.0732;-0.0682;0.1304;0.164
1.425000;0.0877;-0.1244;0.1395;0.206
1.429000;0.0877;-0.1448;0.1701;0.240
1.433000;0.1141;-0.1940;0.2388;0.328
1.439000;0.1240;-0.2219;0.2571;0.362
1.445000;0.1482;-0.2120;0.2635;0.369
1.449000;0.1225;-0.2360;0.2484;0.364
1.454000;0.1329;-0.2508;0.2214;0.360
1.459000;0.1098;-0.2471;0.2351;0.358
1.464000;0.0940;-0.2558;0.2153;0.347
1.468000;0.1498;-0.2959;0.1287;0.356
1.475000;0.1530;-0.2859;0.0854;0.335
1.487000;0.1468;-0.2450;0.0493;0.290
1.488000;0.1546;-0.1949;0.0157;0.249
1.488000;0.1360;-0.1973;-0.0584;0.247
1.497000;0.1055;-0.2114;-0.0870;0.252
1.498000;0.1082;-0.1801;-0.1298;0.247
1.503000;0.0705;-0.1749;-0.1534;0.243
1.506000;0.0784;-0.1549;-0.1650;0.239
1.511000;0.0364;-0.1443;-0.1431;0.206
1.517000;0.0497;-0.1502;-0.0998;0.187
1.521000;0.0369;-0.1726;-0.0972;0.202
1.527000;0.0240;-0.1929;-0.1185;0.228
1.534000;-0.0079;-0.1856;-0.0938;0.208
1.536000;-0.0514;-0.0956;-0.0883;0.140
1.541000;-0.0520;-0.0209;-0.1351;0.146
1.547000;0.0093;-0.0442;-0.1862;0.192
1.555000;0.0443;-0.0532;-0.2013;0.213
1.557000;0.1079;-0.1050;-0.2708;0.310
1.569000;0.1099;-0.1280;-0.2662;0.315
1.570000;0.1339;-0.1364;-0.3162;0.370
1.570000;0.1444;-0.1377;-0.3017;0.362
1.576000;0.1367;-0.1270;-0.3253;0.375
1.580000;0.1083;-0.0999;-0.2680;0.306
1.585000;0.0524;-0.0611;-0.2444;0.257
1.590000;0.0114;-0.0415;-0.1783;0.183
1.596000;-0.0149;-0.0338;-0.1436;0.148
1.600000;-0.0411;-0.0239;-0.1044;0.115
1.605000;-0.0746;-0.0114;-0.0916;0.119
1.610000;-0.0682;-0.0060;-0.0790;0.105
1.614000;-0.0884;0.0113;-0.1092;0.141
1.619000;-0.0543;-0.0046;-0.1154;0.128
1.624000;-0.0447;-0.0058;-0.1429;0.150
1.633000;-0.0496;-0.0020;-0.1631;0.170
1.634000;-0.0547;-0.0168;-0.2163;0.224
1.639000;-0.0382;-0.0121;-0.1955;0.200
1.646000;-0.0384;-0.0190;-0.1607;0.166
1.650000;-0.0502;-0.0018;-0.1499;0.158
1.654000;-0.0333;-0.0035;-0.0988;0.104
1.659000;-0.0093;-0.0288;-0.0647;0.071
1.666000;-0.0115;-0.0491;-0.0595;0.078
1.669000;0.0194;-0.0883;-0.0423;0.100
1.675000;-0.0070;-0.0845;-0.0586;0.103
1.683000;0.0166;-0.1021;-0.0629;0.121
1.684000;0.0331;-0.0885;-0.0505;0.107
1.688000;0.0875;-0.0987;-0.0216;0.134
1.693000;0.1274;-0.1113;-0.0166;0.170
1.698000;0.1693;-0.1357;-0.0165;0.218
1.703000;0.1799;-0.1029;-0.0614;0.216
1.708000;0.1547;-0.0751;-0.0728;0.187
1.713000;0.1438;-0.0877;-0.0579;0.178
1.717000;0.1071;-0.0904;-0.0053;0.140
1.722000;0.0611;-0.1143;-0.0242;0.132
1.727000;0.0413;-0.1068;0.0187;0.116
1.732000;0.0359;-0.0756;0.0542;0.100
1.737000;0.0329;-0.0563;0.0774;0.101
1.742000;0.0183;-0.0252;0.1409;0.144
1.748000;0.0251;0.0032;0.2085;0.210
1.753000;0.0060;0.0142;0.2163;0.217
1.756000;-0.0178;0.0366;0.1884;0.193
1.777000;-0.0152;0.0865;-0.0600;0.106
1.778000;-0.0598;0.0385;0.2798;0.289
1.778000;-0.0396;0.0190;0.1565;0.163
1.779000;-0.0240;0.0350;0.0745;0.086
1.782000;-0.0155;0.0199;0.1119;0.115
1.786000;-0.0449;0.0334;0.1133;0.126
1.791000;-0.0481;0.0206;0.1053;0.118
1.797000;-0.0608;0.0435;0.0617;0.097
1.801000;-0.0641;0.0616;0.0375;0.096
1.806000;-0.0629;0.0393;0.0395;0.084
1.811000;-0.0740;0.0744;-0.0249;0.108
1.815000;-0.0662;0.0786;-0.0057;0.103
1.821000;-0.0683;0.0714;0.0205;0.101
1.825000;-0.0752;0.0860;0.0512;0.125
1.831000;-0.0775;0.0532;0.0697;0.117
1.835000;-0.0988;0.0374;0.0952;0.142
1.840000;-0.0726;0.0241;0.0873;0.116
1.846000;-0.0822;0.0274;0.1222;0.150
1.850000;-0.0535;0.0113;0.1449;0.155
1.855000;-0.0535;0.0120;0.1389;0.149
1.860000;-0.0177;0.0099;0.1401;0.142
1.866000;-0.0155;0.0196;0.1152;0.118
1.869000;0.0149;0.0100;0.1451;0.146
1.875000;0.0261;0.0170;0.1534;0.157
1.881000;-0.0008;0.0475;0.1189;0.128
1.884000;-0.0065;0.0585;0.0823;0.101
1.889000;-0.0006;0.1025;0.0413;0.110
1.895000;-0.0162;0.1129;0.0385;0.120
1.904000;-0.0080;0.0948;0.0097;0.096
1.904000;-0.0449;0.1076;-0.0023;0.117
1.910000;-0.0483;0.1203;-0.0568;0.142
1.915000;-0.0418;0.1212;-0.0920;0.158
1.923000;-0.0541;0.1175;-0.0651;0.145
1.924000;-0.0182;0.0784;-0.0812;0.114
1.931000;0.0010;0.0612;-0.0567;0.083
1.936000;0.0249;0.0465;0.0054;0.053
1.939000;0.0367;0.0463;0.0386;0.071
1.943000;0.0461;0.0484;0.0335;0.075
1.948000;0.0529;0.0576;0.0333;0.085
1.953000;0.0782;0.0569;0.0045;0.097
1.958000;0.0913;0.0418;0.0092;0.101
1.963000;0.0946;0.0459;-0.0194;0.107
1.967000;0.1096;0.0545;-0.0785;0.145
1.972000;0.1173;0.0608;-0.1063;0.170
1.977000;0.1061;0.0505;-0.1363;0.180
1.989000;0.1070;0.0545;-0.1589;0.199
1.989000;0.1035;0.0681;-0.1671;0.208
1.996000;0.0624;0.0794;-0.1894;0.215
1.997000;0.0481;0.0411;-0.1689;0.180
2.008000;0.0673;0.0460;-0.1200;0.145
2.009000;0.0582;0.0368;-0.0573;0.090
2.019000;0.0562;0.0161;-0.0212;0.062
2.020000;0.0803;0.0147;0.0312;0.087
2.021000;0.0919;-0.0080;0.0523;0.106
2.026000;0.1009;-0.0139;0.0637;0.120
2.035000;0.0882;-0.0294;0.0727;0.118
2.036000;0.0970;-0.0354;0.0863;0.135
2.041000;0.0983;-0.0344;0.0713;0.126
2.046000;0.0973;-0.0596;0.0589;0.128
2.051000;0.0871;-0.0679;0.0679;0.130
2.056000;0.0536;-0.0646;0.0650;0.106
2.060000;0.0085;-0.0355;0.0905;0.098
2.075000;-0.0147;-0.0493;0.0613;0.080
2.076000;-0.0303;-0.0890;0.0608;0.112
2.076000;-0.0764;-0.0973;0.1030;0.161
2.085000;-0.1057;-0.1172;0.1117;0.193
2.085000;-0.0992;-0.1417;0.1487;0.228
2.090000;-0.0907;-0.1566;0.1807;0.256
2.094000;-0.0684;-0.1573;0.2077;0.269
2.099000;-0.0728;-0.1915;0.2391;0.315
2.104000;-0.0539;-0.1851;0.2371;0.306
2.109000;-0.0378;-0.1603;0.2280;0.281
2.114000;-0.0222;-0.1503;0.2048;0.255
2.120000;-0.0234;-0.1408;0.1437;0.203
2.124000;-0.0579;-0.1034;0.1164;0.166
2.129000;-0.0708;-0.0359;0.0513;0.095
2.135000;-0.0648;-0.0119;0.0153;0.068
2.139000;-0.0801;0.0116;-0.0442;0.092
2.144000;-0.0905;0.0516;-0.1292;0.166
2.149000;-0.0791;0.0080;-0.1780;0.195
2.155000;-0.0699;0.0551;-0.1813;0.202
2.158000;-0.0773;0.0426;-0.1703;0.192
2.167000;-0.0582;0.0515;-0.1950;0.210
2.168000;-0.0602;0.0535;-0.1578;0.177
2.172000;-0.0715;0.0914;-0.1826;0.216
2.179000;-0.0875;0.0767;-0.1692;0.205
2.186000;-0.0871;0.0790;-0.1678;0.205
2.188000;-0.0819;0.0886;-0.1711;0.209
2.194000;-0.0677;0.0723;-0.1887;0.213
2.198000;-0.0775;0.0709;-0.2346;0.257
2.202000;-0.0566;0.0534;-0.2492;0.261
2.207000;-0.0858;0.0199;-0.2685;0.283
2.212000;-0.0933;0.0086;-0.2544;0.271
2.217000;-0.0698;-0.0163;-0.2239;0.235
2.223000;-0.0795;-0.0286;-0.1698;0.190
2.227000;-0.0366;-0.0284;-0.1162;0.125
2.232000;-0.0059;-0.0349;-0.0108;0.037
2.237000;0.0196;-0.1054;0.0652;0.125
2.242000;0.0354;-0.1282;0.1192;0.179
2.247000;0.0747;-0.2007;0.2108;0.300
2.255000;0.1088;-0.2114;0.2209;0.325
2.256000;0.1353;-0.2062;0.2262;0.335
2.261000;0.1474;-0.1994;0.2385;0.344
2.266000;0.1547;-0.1551;0.1867;0.288
2.271000;0.1334;-0.1310;0.1305;0.228
2.276000;0.1076;-0.0911;0.0227;0.143
2.282000;0.0751;-0.0873;-0.0226;0.117
2.286000;0.0264;-0.0622;-0.1411;0.156
2.290000;-0.0075;-0.0419;-0.1874;0.192
2.296000;-0.0289;-0.0474;-0.2261;0.233
2.302000;-0.0284;-0.0406;-0.2314;0.237
2.306000;-0.0772;-0.0499;-0.2033;0.223
2.311000;-0.0517;-0.0207;-0.1471;0.157
2.316000;-0.0905;-0.0413;-0.0675;0.120
2.320000;-0.0485;-0.0590;-0.0432;0.088
2.325000;-0.0591;-0.0478;0.0402;0.086
2.331000;-0.0770;-0.0509;0.0944;0.132
2.335000;-0.0264;-0.0563;0.1530;0.165
2.339000;0.0021;-0.0525;0.1968;0.204
2.344000;0.0180;-0.0370;0.1975;0.202
2.350000;0.0570;-0.0507;0.1650;0.182
2.355000;0.0908;-0.0648;0.0925;0.145
2.359000;0.0627;-0.0483;0.0632;0.101
2.366000;0.0397;-0.0276;-0.0370;0.061
2.369000;0.0483;-0.0097;-0.1055;0.116
2.376000;0.0433;0.0031;-0.1355;0.142
2.378000;0.0220;0.0065;-0.1581;0.160
2.393000;-0.0155;0.0456;-0.1686;0.175
2.394000;-0.0384;0.0778;-0.1720;0.193
2.395000;-0.0634;0.0720;-0.1658;0.192
2.403000;-0.1074;0.0927;-0.1763;0.226
2.403000;-0.1320;0.0566;-0.1250;0.190
2.408000;-0.1590;0.0688;-0.0907;0.196
2.414000;-0.1575;0.0695;-0.0520;0.180
2.418000;-0.1513;0.0609;0.0030;0.163
2.423000;-0.0976;0.0288;0.0362;0.108
2.430000;-0.1062;0.0206;0.0834;0.137
2.434000;-0.0791;-0.0018;0.2227;0.236
2.438000;-0.0402;0.0156;0.0168;0.046
2.444000;-0.0299;-0.0100;0.1163;0.121
2.449000;-0.0339;-0.0097;0.0964;0.103
2.454000;-0.0450;-0.0001;0.0576;0.073
2.458000;-0.0346;0.0069;0.0453;0.057
2.463000;-0.0434;0.0091;0.0354;0.057
2.468000;-0.0688;0.0089;0.0066;0.070
2.475000;-0.0870;0.0135;0.0018;0.088
2.476000;-0.0981;0.0112;-0.0124;0.100
2.486000;-0.1238;0.0399;-0.0503;0.139
2.487000;-0.1566;0.0520;-0.0570;0.175
2.491000;-0.0919;0.0902;-0.0779;0.150
2.498000;-0.0676;0.0974;-0.0654;0.135
2.502000;-0.0910;0.1022;-0.0814;0.159
2.506000;-0.1117;0.1045;-0.1068;0.187
2.512000;-0.1580;0.0999;-0.0585;0.196
2.516000;-0.2275;0.1385;-0.0129;0.267
2.521000;-0.2516;0.1387;0.0133;0.288
2.527000;-0.2520;0.1462;0.0251;0.292
2.533000;-0.2290;0.1443;0.0628;0.278
2.536000;-0.2038;0.1188;0.0813;0.249
2.542000;-0.1527;0.1009;0.0972;0.207
2.545000;-0.1117;0.0783;0.1391;0.195
2.551000;-0.1068;0.0536;0.1522;0.193
2.556000;-0.0666;0.0597;0.1652;0.188
2.561000;-0.0244;0.0608;0.1638;0.176
2.568000;-0.0014;0.0663;0.1814;0.193
2.570000;-0.0045;0.0690;0.1775;0.191
2.575000;-0.0408;0.0928;0.1594;0.189
2.581000;-0.0888;0.0996;0.1106;0.173
2.595000;-0.1105;0.1134;0.1239;0.201
2.596000;-0.0872;0.1130;0.0968;0.172
2.596000;-0.0857;0.1056;0.0817;0.159
2.599000;-0.0681;0.0844;0.0763;0.133
2.605000;-0.0270;0.0822;0.0472;0.099
2.609000;0.0065;0.0612;0.0230;0.066
2.616000;0.0259;0.0713;0.0347;0.083
2.620000;0.0431;0.0578;0.0344;0.080
2.625000;0.0842;0.0753;0.0365;0.119
2.629000;0.1184;0.0499;0.0718;0.147
2.635000;0.1385;0.0461;0.1163;0.187
2.639000;0.1539;0.0374;0.1485;0.217
2.644000;0.1694;0.0405;0.1497;0.230
2.650000;0.1467;0.0385;0.1199;0.193
2.654000;0.1314;0.0245;0.1308;0.187
2.659000;0.0927;0.0437;0.1487;0.181
2.664000;0.0520;0.0342;0.1404;0.154
2.669000;0.0069;0.0743;0.1297;0.150
2.673000;-0.0091;0.0759;0.1286;0.150
2.678000;-0.0295;0.0774;0.1014;0.131
2.695000;-0.0733;0.0597;0.1386;0.168
2.696000;-0.0833;0.0229;0.1303;0.156
2.696000;-0.0646;0.0221;0.1292;0.146
2.698000;-0.0387;0.0094;0.1804;0.185
2.703000;-0.0011;-0.0269;0.1836;0.186
2.708000;0.0268;-0.0772;0.2533;0.266
2.713000;0.0402;-0.0872;0.2559;0.273
2.719000;0.0603;-0.0759;0.2585;0.276
2.723000;0.0871;-0.0772;0.2327;0.260
2.727000;0.1184;-0.0694;0.2023;0.244
2.733000;0.0996;-0.0480;0.2077;0.235
2.739000;0.1141;-0.0486;0.1538;0.198
2.742000;0.0835;-0.0424;0.0955;0.134
2.746000;0.0674;-0.0270;0.0710;0.102
2.751000;0.0539;-0.0145;0.0585;0.081
2.756000;0.0285;0.0002;0.0248;0.038
2.761000;0.0154;0.0168;0.0104;0.025
2.768000;-0.0024;0.0688;-0.0182;0.071
2.773000;-0.0346;0.0869;-0.0702;0.117
2.776000;0.0020;0.1123;-0.1313;0.173
2.780000;-0.0140;0.1517;-0.1634;0.223
2.799000;-0.0276;0.1435;-0.1810;0.233
2.800000;-0.0365;0.1497;-0.2222;0.270
2.801000;-0.0429;0.1393;-0.2726;0.309
2.803000;-0.0446;0.1628;-0.3154;0.358
2.805000;-0.0771;0.1508;-0.3626;0.400
2.809000;-0.0833;0.1347;-0.3833;0.415
2.815000;-0.0586;0.1263;-0.3540;0.380
2.820000;-0.0435;0.0830;-0.3320;0.345
2.824000;-0.0425;0.0500;-0.2913;0.299
2.829000;-0.0154;-0.0179;-0.2651;0.266
2.836000;0.0305;-0.0729;-0.2178;0.232
2.839000;0.0406;-0.0963;-0.1448;0.179
2.844000;0.0458;-0.1312;-0.0914;0.166
2.849000;0.0984;-0.1493;-0.0645;0.190
2.853000;0.1170;-0.1460;-0.0426;0.192
2.858000;0.0997;-0.1381;-0.0209;0.172
2.863000;0.0847;-0.1708;-0.0515;0.198
2.870000;0.0581;-0.2082;-0.0820;0.231
2.873000;0.0388;-0.2073;-0.0623;0.220
2.878000;0.0389;-0.2159;-0.0594;0.227
2.885000;0.0105;-0.1936;-0.0541;0.201
2.891000;0.0037;-0.1550;-0.0323;0.158
2.895000;-0.0244;-0.1360;-0.0036;0.138
2.899000;-0.0410;-0.1077;-0.0130;0.116
2.902000;-0.0253;-0.1410;-0.0865;0.167
2.908000;-0.0243;-0.1548;-0.1569;0.222
2.913000;-0.0545;-0.1657;-0.1770;0.249
2.918000;-0.0941;-0.1640;-0.1495;0.241
2.922000;-0.0930;-0.1121;-0.1150;0.186
2.927000;-0.0917;-0.0914;-0.0856;0.155
2.934000;-0.0759;-0.0873;-0.0612;0.131
2.937000;-0.0695;-0.1024;-0.0322;0.128
2.942000;-0.0414;-0.1270;0.0013;0.134
2.947000;0.0079;-0.1585;0.0202;0.160
2.954000;0.0283;-0.1825;0.0295;0.187
2.956000;0.0439;-0.1709;0.0483;0.183
2.961000;0.0687;-0.1809;0.0455;0.199
2.968000;0.0835;-0.1743;0.0546;0.201
2.972000;0.0813;-0.1656;0.0470;0.190
2.976000;0.0956;-0.1381;0.0300;0.171
2.981000;0.1191;-0.1274;0.0273;0.177
2.995000;0.1043;-0.1311;-0.0156;0.168
2.996000;0.0942;-0.1084;-0.0297;0.147
2.996000;0.0797;-0.0905;-0.0248;0.123
3.004000;0.1056;-0.0634;-0.0578;0.136
3.005000;0.1219;-0.0411;-0.0716;0.147
3.010000;0.0810;-0.0238;-0.0757;0.113
3.015000;0.0548;0.0291;-0.0798;0.101
3.020000;0.0028;0.0483;-0.0744;0.089
3.025000;-0.0156;0.0937;-0.0904;0.131
3.030000;-0.0362;0.1033;-0.0945;0.145
3.035000;-0.0377;0.1034;-0.0937;0.145
3.039000;-0.0462;0.1229;-0.0810;0.154
3.045000;-0.0547;0.0927;-0.0922;0.142
3.051000;-0.0752;0.0842;-0.0725;0.134
3.056000;-0.0623;0.0451;-0.0648;0.101
3.060000;-0.0708;0.0544;-0.0168;0.091
3.065000;-0.0577;0.0284;0.0308;0.071
3.069000;-0.0329;0.0171;0.0898;0.097
3.074000;0.0059;-0.0108;0.1816;0.182
3.080000;0.0255;0.0112;0.2418;0.243
3.092000;0.0688;-0.0174;0.2967;0.305
3.093000;0.0953;-0.0131;0.2871;0.303
3.094000;0.0694;-0.0239;0.4817;0.487
3.102000;0.0609;-0.0283;0.2380;0.247
3.107000;0.0073;0.0211;0.1411;0.143
3.108000;-0.0290;0.0270;0.2301;0.233
3.113000;-0.0317;0.0990;0.1238;0.162
3.120000;-0.0627;0.1438;0.0682;0.171
3.124000;-0.1196;0.1740;0.0367;0.214
3.128000;-0.1144;0.1801;0.0080;0.214
3.133000;-0.1215;0.2054;-0.0609;0.246
3.138000;-0.1641;0.2259;-0.1245;0.306
3.143000;-0.1847;0.2061;-0.1448;0.312
3.147000;-0.2122;0.1729;-0.1649;0.320
3.154000;-0.2512;0.1642;-0.1660;0.343
3.157000;-0.2423;0.1754;-0.1195;0.322
3.162000;-0.2217;0.1610;-0.0710;0.283
3.168000;-0.2157;0.1687;0.0055;0.274
3.174000;-0.1481;0.1601;0.0553;0.225
3.177000;-0.1027;0.1403;0.1402;0.223
3.182000;-0.0389;0.1160;0.1936;0.229
3.188000;0.0124;0.0610;0.2513;0.259
3.193000;0.0747;0.0322;0.3085;0.319
3.197000;0.1173;0.0317;0.3083;0.331
3.202000;0.1522;0.0234;0.2844;0.323
3.206000;0.1704;0.0691;0.2417;0.304
3.211000;0.1602;0.0613;0.1780;0.247
3.217000;0.1195;0.0578;0.0958;0.164
3.221000;0.0891;0.1133;0.0238;0.146
3.226000;0.0641;0.1087;-0.0286;0.129
3.231000;0.0326;0.1255;-0.0900;0.158
3.237000;-0.0100;0.1611;-0.1154;0.198
3.240000;-0.0380;0.1751;-0.1690;0.246
3.246000;-0.0868;0.1585;-0.1747;0.251
3.252000;-0.0873;0.1829;-0.1732;0.267
3.257000;-0.0950;0.1862;-0.1338;0.248
3.260000;-0.0931;0.1778;-0.0924;0.221
3.265000;-0.0818;0.1768;-0.0489;0.201
3.274000;-0.0564;0.1524;-0.0058;0.163
3.276000;-0.0506;0.1305;0.0322;0.144
3.280000;-0.0426;0.1231;0.0296;0.134
3.292000;-0.0326;0.0967;0.0412;0.110
3.293000;-0.0393;0.0611;0.0314;0.079
3.295000;-0.0175;0.0140;0.0264;0.035
3.302000;0.0208;-0.0161;0.0356;0.044
3.304000;0.0616;-0.0507;0.0899;0.120
3.309000;0.0831;-0.0518;0.1437;0.174
3.314000;0.0853;-0.0556;0.1805;0.207
3.319000;0.0710;-0.0931;0.1980;0.230
3.324000;0.0591;-0.0974;0.2130;0.242
3.329000;0.0568;-0.1117;0.1827;0.222
3.333000;0.0259;-0.1193;0.1480;0.192
3.338000;-0.0236;-0.1082;0.0874;0.141
3.343000;-0.0442;-0.0951;0.0582;0.120
3.349000;-0.0457;-0.0584;0.0293;0.080
3.353000;-0.0759;-0.0314;0.0101;0.083
3.358000;-0.0868;0.0096;0.0147;0.089
3.363000;-0.0406;-0.0044;0.0122;0.043
3.368000;-0.0112;0.0196;0.0026;0.023
3.373000;-0.0034;0.0384;-0.0543;0.067
3.378000;0.0709;0.0094;-0.0966;0.120
3.383000;0.0758;0.0139;-0.1385;0.158
3.388000;0.0858;-0.0151;-0.1800;0.200
3.392000;0.0747;-0.0461;-0.1714;0.193
3.398000;0.0615;-0.0458;-0.1604;0.178
3.408000;0.0746;-0.0145;-0.1520;0.170
3.409000;0.0663;0.0072;-0.1530;0.167
3.412000;0.0483;0.0121;-0.1518;0.160
3.418000;0.0349;0.0077;-0.1623;0.166
3.422000;0.0023;0.0154;-0.2108;0.211
3.427000;0.0008;-0.0100;-0.2233;0.223
3.433000;-0.0126;-0.0301;-0.2499;0.252
3.436000;-0.0401;-0.0473;-0.2312;0.239
3.441000;-0.0721;-0.0283;-0.2174;0.231
3.446000;-0.0494;-0.0281;-0.1515;0.162
3.455000;-0.0411;-0.0346;-0.0577;0.079
3.456000;-0.0141;-0.0292;-0.0145;0.036
3.461000;0.0124;-0.0216;0.0331;0.041
3.466000;0.0575;-0.0809;0.0020;0.099
3.471000;0.0954;-0.0808;-0.0075;0.125
3.479000;0.0973;-0.0880;-0.0359;0.136
3.481000;0.1231;-0.1097;-0.0878;0.187
3.493000;0.0920;-0.1126;-0.1369;0.200
3.494000;0.1089;-0.0964;-0.1547;0.212
3.495000;0.1378;-0.0803;-0.1582;0.225
3.500000;0.1119;-0.0453;-0.1640;0.204
3.506000;0.0791;-0.0416;-0.1460;0.171
3.510000;0.0752;0.0050;-0.2017;0.215
3.515000;0.0355;0.0443;-0.2380;0.245
3.519000;-0.0017;0.0765;-0.2502;0.262
3.525000;-0.0080;0.0970;-0.2742;0.291
3.529000;-0.0070;0.1158;-0.3075;0.329
3.535000;0.0274;0.1539;-0.3287;0.364
3.539000;0.0596;0.1519;-0.2832;0.327
3.544000;0.0776;0.1504;-0.2334;0.288
3.550000;0.0743;0.1494;-0.1698;0.238
3.555000;0.1022;0.1348;-0.1352;0.216
3.560000;0.0777;0.1773;-0.0391;0.197
3.564000;0.0774;0.1722;0.0205;0.190
3.570000;0.0700;0.2076;0.0726;0.231
3.574000;0.0649;0.2306;0.1123;0.265
3.579000;0.0215;0.2460;0.1446;0.286
3.596000;0.0116;0.2418;0.1244;0.272
3.597000;-0.0008;0.2470;0.0901;0.263
3.597000;-0.0440;0.2544;0.0823;0.271
3.601000;-0.0583;0.2615;0.1219;0.294
3.606000;-0.0917;0.2898;0.1114;0.324
3.609000;-0.1014;0.3129;0.1152;0.349
3.612000;-0.0995;0.3641;0.1238;0.397
3.619000;-0.0624;0.3838;0.0990;0.401
3.623000;-0.0280;0.3889;0.0911;0.400
3.628000;0.0274;0.4173;0.0808;0.426
3.632000;0.0822;0.4381;0.0422;0.448
3.637000;0.1322;0.4441;-0.0151;0.464
3.643000;0.1845;0.4498;-0.0767;0.492
3.648000;0.2248;0.4315;-0.1330;0.504
3.656000;0.2312;0.4522;-0.1853;0.541
3.657000;0.2616;0.4586;-0.2066;0.567
3.662000;0.3109;0.5109;-0.2398;0.644
3.671000;0.3338;0.5157;-0.2466;0.662
3.672000;0.3563;0.5186;-0.3037;0.699
3.676000;0.3235;0.5410;-0.3439;0.718
3.682000;0.2974;0.5588;-0.4080;0.753
3.699000;0.2733;0.5270;-0.4267;0.731
3.700000;0.2657;0.4959;-0.4500;0.720
3.700000;0.2555;0.5110;-0.4543;0.730
3.700000;0.2857;0.5101;-0.4370;0.730
3.708000;0.3276;0.4908;-0.3839;0.704
3.711000;0.3598;0.4837;-0.3214;0.683
3.716000;0.4110;0.4359;-0.2517;0.650
3.725000;0.4051;0.4094;-0.2275;0.619
3.726000;0.4521;0.3921;-0.2201;0.638
3.730000;0.4872;0.3911;-0.2151;0.661
3.735000;0.4937;0.4303;-0.2291;0.694
3.740000;0.5363;0.4477;-0.3221;0.769
3.745000;0.5864;0.4671;-0.3862;0.843
3.750000;0.6248;0.4552;-0.4120;0.876
3.755000;0.6752;0.4555;-0.4975;0.954
3.760000;0.7190;0.4274;-0.5877;1.022
3.764000;0.7389;0.4571;-0.7495;1.147
3.769000;0.7515;0.4349;-0.4761;0.990
3.775000;0.7473;0.4349;-0.4946;0.996
3.779000;0.8074;0.4835;-0.5250;1.078
3.787000;0.7856;0.4802;-0.4598;1.029
3.789000;0.7514;0.5230;-0.4664;1.027
3.794000;0.7549;0.5043;-0.4443;1.011
3.799000;0.7054;0.4981;-0.4294;0.964
3.810000;0.7010;0.4999;-0.4002;0.949
3.811000;0.7371;0.4882;-0.3925;0.967
3.814000;0.6540;0.5037;-0.3155;0.884
3.820000;0.6474;0.4980;-0.2027;0.842
3.824000;0.6408;0.4714;-0.0996;0.802
3.828000;0.6250;0.4570;0.0703;0.777
3.833000;0.6240;0.4618;0.2616;0.819
3.838000;0.6350;0.4351;0.4215;0.878
3.845000;0.6747;0.4008;0.5549;0.961
3.848000;0.6833;0.3703;0.6834;1.035
3.852000;0.7110;0.3531;0.7496;1.092
3.857000;0.7314;0.3320;0.7775;1.118
3.862000;0.7807;0.3025;0.8029;1.160
3.867000;0.7634;0.2934;0.7901;1.137
3.873000;0.7727;0.2833;0.7581;1.119
3.877000;0.7583;0.2725;0.7142;1.077
3.882000;0.7848;0.2513;0.6704;1.062
3.902000;0.8042;0.2175;0.5764;1.013
3.903000;0.7380;0.3006;0.5829;0.987
3.903000;0.6764;0.3546;0.5607;0.947
3.903000;0.5903;0.3559;0.4668;0.832
3.907000;0.4945;0.4001;0.4113;0.757
3.911000;0.3818;0.4183;0.3965;0.691
3.916000;0.2834;0.4033;0.3243;0.590
3.922000;0.1873;0.4124;0.2977;0.542
3.926000;0.1178;0.4148;0.3284;0.542
3.931000;0.1107;0.4078;0.3209;0.531
3.936000;0.1231;0.3915;0.3325;0.528
3.941000;0.0545;0.3607;0.3585;0.511
3.946000;0.0893;0.3107;0.3246;0.458
3.950000;0.0436;0.3013;0.3124;0.436
3.957000;0.0275;0.2656;0.3216;0.418
3.961000;0.0264;0.2418;0.3333;0.413
3.965000;0.0307;0.1989;0.3783;0.429
3.972000;0.0236;0.1630;0.4425;0.472
3.975000;-0.0119;0.1245;0.4253;0.443
3.980000;-0.0282;0.0689;0.4703;0.476
3.998000;-0.0517;0.0298;0.4841;0.488
3.999000;-0.1136;0.0164;0.4669;0.481
3.999000;-0.2043;-0.0167;0.4735;0.516
3.999000;-0.2546;-0.0550;0.4849;0.550
4.008000;-0.3864;-0.0724;0.5059;0.641
4.009000;-0.4538;-0.0906;0.5005;0.682
4.013000;-0.5239;-0.0857;0.5070;0.734
4.020000;-0.5774;-0.0579;0.5231;0.781
4.025000;-0.6266;-0.0121;0.5295;0.820
4.029000;-0.6575;0.0850;0.5049;0.833
4.035000;-0.6918;0.1426;0.4181;0.821
4.038000;-0.7008;0.2228;0.3338;0.808
4.043000;-0.6892;0.3760;0.2280;0.818
4.048000;-0.6878;0.5138;0.1343;0.869
4.054000;-0.6605;0.6387;0.0168;0.919
4.059000;-0.6477;0.7461;-0.1316;0.997
4.063000;-0.6109;0.8310;-0.2726;1.067
4.068000;-0.5691;0.9203;-0.4828;1.185
4.078000;-0.6105;0.9926;-0.6568;1.338
4.079000;-0.6558;1.0080;-0.8425;1.468
4.083000;-0.7074;1.0817;-0.9132;1.583
4.092000;-0.7944;1.1594;-0.9719;1.709
4.095000;-0.8139;1.1862;-1.0543;1.784
4.097000;-0.7878;1.2006;-1.1319;1.829
4.103000;-0.8071;1.2075;-1.2428;1.912
4.107000;-0.8213;1.1235;-1.3368;1.930
4.112000;-0.8281;1.0045;-1.3638;1.885
4.117000;-0.8844;0.9007;-1.4433;1.917
4.124000;-0.8631;0.7817;-1.4127;1.831
4.127000;-0.9126;0.6857;-1.2674;1.706
4.131000;-0.9565;0.5631;-0.9764;1.478
4.136000;-0.9741;0.4848;-0.6284;1.256
4.141000;-0.9300;0.4166;-0.1995;1.038
4.146000;-0.8943;0.3287;0.1525;0.965
4.151000;-0.8339;0.2874;0.4850;1.007
4.157000;-0.7681;0.2317;0.7597;1.105
4.161000;-0.6636;0.1971;0.9552;1.180
4.166000;-0.5800;0.1631;1.1266;1.278
4.172000;-0.4622;0.1988;1.2141;1.314
4.178000;-0.3575;0.2577;1.2322;1.309
4.181000;-0.2753;0.3607;1.1903;1.274
4.194000;-0.2533;0.5002;1.0218;1.166
4.195000;-0.2122;0.6308;0.7983;1.039
4.196000;-0.1849;0.7883;0.4962;0.950
4.200000;-0.1451;0.9422;0.1848;0.971
4.205000;-0.1189;1.0907;-0.1095;1.103
4.210000;-0.0922;1.2059;-0.4251;1.282
4.215000;-0.0315;1.3194;-0.7045;1.496
4.220000;-0.0066;1.4224;-0.9190;1.693
4.225000;0.0376;1.5180;-1.1523;1.906
4.230000;0.0529;1.5802;-1.3112;2.054
4.235000;0.0750;1.6406;-1.4604;2.198
4.240000;0.0774;1.6780;-1.5472;2.284
4.245000;0.0673;1.7265;-1.5789;2.341
4.249000;0.0926;1.7670;-1.6583;2.425
4.256000;0.0937;1.8019;-1.6826;2.467
4.259000;0.1043;1.7931;-1.6662;2.450
4.264000;0.0649;1.7695;-1.6689;2.433
4.270000;0.0380;1.7453;-1.6070;2.373
4.274000;0.0430;1.6921;-1.5380;2.287
4.279000;0.0253;1.6479;-1.3973;2.161
4.284000;0.0036;1.5576;-1.2328;1.986
4.290000;0.0020;1.4687;-1.0422;1.801
4.293000;-0.0132;1.4241;-0.8732;1.671
4.298000;-0.0446;1.3419;-0.6423;1.488
4.314000;-0.0875;1.2772;-0.4571;1.359
4.315000;-0.1542;1.2435;-0.2984;1.288
4.315000;-0.1876;1.2148;-0.1709;1.241
4.318000;-0.2089;1.1453;-0.0268;1.165
4.323000;-0.2518;1.1257;0.0836;1.157
4.330000;-0.2779;1.1081;0.1723;1.155
4.332000;-0.2898;1.0875;0.3183;1.170
4.338000;-0.2779;1.1040;0.4140;1.211
4.343000;-0.2233;1.0980;0.4712;1.216
4.347000;-0.2121;1.1026;0.5307;1.242
4.355000;-0.1869;1.1057;0.5159;1.234
4.357000;-0.1238;1.1503;0.5370;1.276
4.362000;-0.0925;1.1957;0.4767;1.291
4.367000;-0.0424;1.2156;0.4141;1.285
4.373000;-0.0236;1.2628;0.3037;1.299
4.380000;-0.0623;1.3234;0.1718;1.336
4.382000;-0.0724;1.3997;0.0999;1.405
4.396000;-0.0824;1.4254;0.0423;1.428
4.397000;-0.1162;1.4725;-0.0104;1.477
4.397000;-0.1474;1.5410;-0.0367;1.548
4.402000;-0.1663;1.5810;-0.0248;1.590
4.406000;-0.1587;1.6260;-0.0176;1.634
4.411000;-0.1775;1.6449;0.0493;1.655
4.416000;-0.1654;1.6401;0.0850;1.651
4.421000;-0.1416;1.6190;0.1255;1.630
4.426000;-0.1254;1.5888;0.1708;1.603
4.430000;-0.1138;1.5974;0.1467;1.608
4.437000;-0.0995;1.5271;0.4357;1.591
4.440000;-0.1018;1.4784;0.4042;1.536
4.445000;-0.1278;1.4753;0.4826;1.557
4.450000;-0.1584;1.4676;0.6254;1.603
4.455000;-0.2053;1.4645;0.7943;1.679
4.460000;-0.2450;1.4637;0.9129;1.742
4.466000;-0.2228;1.4481;1.0934;1.828
4.476000;-0.2300;1.4464;1.2378;1.918
4.476000;-0.2502;1.4318;1.3055;1.954
4.480000;-0.2498;1.3780;1.3588;1.951
4.484000;-0.2645;1.3710;1.4024;1.979
4.490000;-0.2828;1.3629;1.3837;1.963
4.499000;-0.3091;1.3205;1.3460;1.911
4.500000;-0.3098;1.2869;1.2629;1.829
4.515000;-0.3060;1.2837;1.2205;1.797
4.517000;-0.2978;1.2202;1.1757;1.720
4.517000;-0.2870;1.2042;1.1167;1.667
4.520000;-0.3142;1.1426;1.1008;1.617
4.525000;-0.3193;1.0880;1.1446;1.611
4.528000;-0.3097;1.0353;1.2075;1.620
4.534000;-0.2929;1.0515;1.2846;1.686
4.538000;-0.2622;1.0453;1.2709;1.666
4.544000;-0.2439;1.0908;1.2571;1.682
4.549000;-0.2046;1.1447;1.2339;1.695
4.556000;-0.2154;1.1714;1.1508;1.656
4.558000;-0.1975;1.2616;1.0608;1.660
4.563000;-0.1910;1.3153;1.0115;1.670
4.568000;-0.1885;1.3944;0.8857;1.663
4.572000;-0.1897;1.4133;0.7817;1.626
4.577000;-0.1776;1.4058;0.6730;1.569
4.583000;-0.2067;1.3436;0.6170;1.493
4.590000;-0.2416;1.2368;0.5420;1.372
4.594000;-0.3302;1.1243;0.5436;1.292
4.597000;-0.3628;0.9844;0.6264;1.222
4.602000;-0.3733;0.8392;0.7379;1.178
4.616000;-0.3359;0.7316;0.8086;1.141
4.616000;-0.2939;0.5921;0.9437;1.152
4.617000;-0.2355;0.4374;1.0357;1.149
4.625000;-0.2278;0.2770;1.2160;1.268
4.627000;-0.2208;0.1103;1.3340;1.357
4.631000;-0.1977;-0.0221;1.4709;1.484
4.636000;-0.1680;-0.0916;1.5838;1.595
4.641000;-0.1434;-0.1585;1.7181;1.731
4.646000;-0.0877;-0.1706;1.8115;1.822
4.651000;-0.1156;-0.1499;1.8643;1.874
4.656000;-0.2097;-0.1972;1.8715;1.893
4.661000;-0.3100;-0.2121;1.8357;1.874
4.666000;-0.4351;-0.2879;1.7760;1.851
4.676000;-0.5245;-0.3909;1.7068;1.828
4.676000;-0.6086;-0.5015;1.6544;1.833
4.681000;-0.6325;-0.6058;1.6379;1.857
4.686000;-0.6320;-0.6892;1.6716;1.915
4.706000;-0.5836;-0.7637;1.6622;1.920
4.707000;-0.5792;-0.8313;1.6839;1.965
4.707000;-0.5813;-0.9065;1.7032;2.015
4.707000;-0.5601;-0.9479;1.6987;2.024
4.710000;-0.5263;-0.9913;1.6440;1.991
4.715000;-0.4640;-1.0269;1.5799;1.941
4.719000;-0.3834;-1.0477;1.4489;1.829
4.726000;-0.3464;-1.1202;1.2871;1.741
4.729000;-0.3168;-1.1939;1.1493;1.687
4.735000;-0.2610;-1.2471;1.0141;1.628
4.739000;-0.2070;-1.2227;0.9197;1.544
4.744000;-0.1400;-1.1786;0.8804;1.478
4.749000;-0.0689;-1.1581;0.8579;1.443
4.753000;-0.0555;-1.1043;0.8425;1.390
4.758000;-0.0132;-1.0656;0.8344;1.353
4.764000;-0.0065;-1.0423;0.7546;1.287
4.768000;0.0346;-1.0373;0.6462;1.223
4.774000;0.0219;-1.0698;0.5356;1.197
4.778000;0.0414;-1.0898;0.4348;1.174
4.783000;0.0575;-1.1092;0.3173;1.155
4.792000;0.0937;-1.0703;0.1882;1.091
4.793000;0.1016;-1.0305;0.0257;1.036
4.798000;0.1862;-0.9659;-0.1173;0.991
4.803000;0.2775;-0.9453;-0.3055;1.031
4.808000;0.3586;-0.9060;-0.5245;1.107
4.812000;0.4413;-0.8957;-0.7599;1.255
4.818000;0.5472;-0.8305;-0.9448;1.372
4.822000;0.6285;-0.8053;-1.1247;1.519
4.827000;0.7284;-0.7510;-1.2661;1.642
4.832000;0.8182;-0.6697;-1.4408;1.787
4.837000;0.8793;-0.5925;-1.5865;1.908
4.842000;0.9435;-0.5074;-1.6939;2.004
4.848000;0.9705;-0.4883;-1.8059;2.107
4.852000;0.9752;-0.4345;-1.8796;2.162
4.857000;0.9124;-0.4371;-1.9364;2.185
4.862000;0.8545;-0.4622;-2.0028;2.226
4.866000;0.7534;-0.4833;-1.9784;2.171
4.875000;0.5918;-0.5333;-1.9253;2.084
4.876000;0.4551;-0.5788;-1.8342;1.976
4.881000;0.3308;-0.6431;-1.7242;1.870
4.886000;0.2442;-0.7144;-1.5690;1.741
4.905000;0.1540;-0.7879;-1.3807;1.597
4.906000;0.1245;-0.8617;-1.2452;1.519
4.907000;0.1343;-0.9242;-1.0551;1.409
4.907000;0.1590;-0.9805;-0.9321;1.362
4.911000;0.2223;-1.0528;-0.7998;1.341
4.916000;0.2909;-1.0985;-0.6294;1.299
4.922000;0.4242;-1.0940;-0.5143;1.281
4.927000;0.5864;-1.1096;-0.4900;1.347
4.930000;0.7179;-1.1072;-0.4825;1.405
4.935000;0.8356;-1.0775;-0.6016;1.490
4.940000;0.9205;-1.0326;-0.7468;1.572
4.945000;0.9564;-0.9936;-0.9683;1.685
4.950000;0.9630;-0.9484;-1.1607;1.782
4.955000;0.9289;-0.8751;-1.3147;1.832
4.960000;0.9048;-0.7351;-1.4565;1.866
4.964000;0.8703;-0.6072;-1.5144;1.849
4.969000;0.8255;-0.4508;-1.4982;1.769
4.974000;0.7564;-0.3733;-1.4557;1.682
4.979000;0.6462;-0.2697;-1.3416;1.513
4.984000;0.5116;-0.1811;-1.2921;1.401
4.992000;0.4195;-0.0978;-1.1782;1.254
4.995000;0.3550;0.0256;-1.1241;1.179
4.998000;0.3226;0.1004;-1.0581;1.111
5.004000;0.2790;0.1673;-1.0806;1.128
5.022000;0.2601;0.1713;-1.1054;1.148
5.023000;0.2082;0.1728;-1.1277;1.160
5.024000;0.2192;0.1360;-1.2027;1.230
5.024000;0.2113;0.1234;-1.2321;1.256
5.028000;0.2300;0.0899;-1.2734;1.297
5.033000;0.2152;0.0811;-1.2933;1.314
5.037000;0.2485;0.0375;-1.2987;1.323
5.042000;0.2577;0.0427;-1.2565;1.283
5.047000;0.2310;-0.0108;-1.2406;1.262
5.052000;0.2017;-0.0893;-1.2008;1.221
5.057000;0.1460;-0.1212;-1.1492;1.165
5.063000;0.0852;-0.1519;-1.0427;1.057
5.068000;0.0479;-0.1791;-0.9149;0.934
5.079000;0.0270;-0.2005;-0.8208;0.845
5.080000;-0.0445;-0.1921;-0.7029;0.730
5.086000;-0.1426;-0.1854;-0.5876;0.632
5.088000;-0.2199;-0.2041;-0.4366;0.530
5.115000;-0.2641;-0.1938;-0.2953;0.441
5.116000;-0.2992;-0.1639;-0.0443;0.344
5.116000;-0.3153;-0.1557;0.0320;0.353
5.117000;-0.2910;-0.1121;0.0006;0.312
5.117000;-0.2359;-0.1220;0.1987;0.332
5.117000;-0.1572;-0.1258;0.2150;0.295
5.122000;-0.1290;-0.1235;0.1930;0.263
5.127000;-0.0554;-0.1033;0.1688;0.205
5.132000;-0.0200;-0.0797;0.1040;0.132
5.136000;0.0104;-0.0234;0.0751;0.079
5.141000;0.0452;0.0059;-0.0039;0.046
5.146000;0.0843;0.0252;-0.0255;0.092
5.151000;0.1133;0.0608;-0.0757;0.149
5.156000;0.1489;0.0701;-0.1282;0.209
5.160000;0.1837;0.0865;-0.1568;0.257
5.166000;0.1680;0.1340;-0.1352;0.254
5.170000;0.0916;0.1554;-0.1327;0.224
5.175000;0.0361;0.2365;-0.1374;0.276
5.181000;-0.0320;0.3346;-0.0943;0.349
5.186000;-0.0912;0.4042;-0.0035;0.414
5.191000;-0.1724;0.4689;0.0322;0.501
5.195000;-0.1537;0.4619;0.0511;0.489
5.199000;-0.1494;0.5048;0.0605;0.530
5.219000;-0.1615;0.5211;0.0842;0.552
5.220000;-0.1277;0.5296;0.0935;0.553
5.220000;-0.1314;0.5518;0.1148;0.579
5.221000;-0.0960;0.5785;0.1361;0.602
5.224000;-0.0765;0.5354;0.1192;0.554
5.229000;-0.0538;0.5184;0.1573;0.544
5.233000;-0.0636;0.4797;0.2383;0.539
5.240000;-0.0276;0.4410;0.3528;0.565
5.243000;-0.0250;0.4025;0.4383;0.596
5.248000;-0.0059;0.3588;0.5262;0.637
5.253000;0.0150;0.3456;0.5471;0.647
5.259000;-0.0126;0.2817;0.5488;0.617
5.263000;-0.1081;0.2434;0.5242;0.588
5.268000;-0.1827;0.1879;0.4854;0.552
5.275000;-0.2557;0.1778;0.4537;0.550
5.278000;-0.2624;0.1626;0.4675;0.560
5.283000;-0.2531;0.1447;0.4598;0.544
5.288000;-0.2181;0.1670;0.4808;0.554
5.309000;-0.1885;0.1457;0.4563;0.515
5.310000;-0.1641;0.1305;0.5013;0.543
5.310000;-0.1231;0.1026;0.5055;0.530
5.310000;-0.0466;0.0927;0.4907;0.502
5.314000;-0.0062;0.1128;0.5261;0.538
5.317000;0.1081;0.2008;0.4994;0.549
5.323000;0.2490;0.2731;0.4919;0.615
5.327000;0.3666;0.4084;0.5371;0.768
5.333000;0.4514;0.5426;0.5369;0.887
5.337000;0.4603;0.5701;0.4889;0.881
5.343000;0.4511;0.5542;0.4075;0.823
5.346000;0.3618;0.4236;0.3168;0.641
5.354000;0.2602;0.2894;0.2811;0.480
5.357000;0.1967;0.0542;0.4007;0.450
5.361000;0.1611;-0.1046;0.5369;0.570
5.366000;0.0816;-0.0172;0.7349;0.740
5.371000;-0.0466;0.0338;0.9565;0.958
5.376000;-0.1470;-0.0352;1.1324;1.142
5.381000;-0.2622;-0.2505;1.3940;1.440
5.386000;-0.3825;-0.5216;1.6265;1.750
5.399000;-0.4869;-0.7891;1.8636;2.081
5.400000;-0.5397;-1.0345;2.1003;2.403
5.401000;-0.5271;-1.2488;2.2484;2.625
5.406000;-0.4752;-1.4371;2.3533;2.798
5.425000;-0.4281;-1.5666;2.4319;2.924
5.426000;-0.3551;-1.7071;2.3432;2.921
5.427000;-0.3290;-1.8680;2.1590;2.874
5.427000;-0.3000;-2.0587;1.8653;2.794
5.430000;-0.3238;-2.1797;1.5503;2.694
5.435000;-0.3000;-2.2090;1.2452;2.553
5.440000;-0.2867;-2.1650;1.0503;2.423
5.444000;-0.2553;-1.9473;0.9368;2.176
5.450000;-0.2487;-1.6613;0.8568;1.886
5.454000;-0.3121;-1.3748;0.8006;1.621
5.460000;-0.4042;-1.1719;0.6441;1.397
5.464000;-0.4595;-0.9740;0.5069;1.190
5.469000;-0.4843;-0.8076;0.3029;0.989
5.475000;-0.5088;-0.6539;0.0778;0.832
5.478000;-0.5130;-0.5244;-0.0658;0.737
5.483000;-0.5253;-0.4358;-0.2044;0.712
5.499000;-0.5304;-0.3354;-0.3046;0.698
5.500000;-0.5427;-0.2948;-0.4142;0.744
5.500000;-0.6144;-0.2638;-0.4925;0.830
5.503000;-0.6715;-0.2473;-0.5802;0.921
5.510000;-0.7736;-0.3283;-0.6512;1.063
5.513000;-0.8420;-0.4393;-0.7005;1.180
5.518000;-0.8873;-0.4631;-0.6518;1.194
5.524000;-0.9369;-0.5620;-0.5936;1.243
5.528000;-0.8933;-0.6495;-0.4974;1.211
5.535000;-0.8004;-0.7162;-0.3774;1.138
5.538000;-0.7163;-0.7671;-0.2624;1.082
5.543000;-0.6131;-0.8240;-0.1835;1.043
5.548000;-0.4963;-0.8705;-0.1789;1.018
5.552000;-0.4043;-0.9067;-0.2150;1.016
5.558000;-0.2916;-0.9235;-0.2725;1.006
5.563000;-0.1961;-0.9185;-0.3635;1.007
5.567000;-0.1460;-0.9327;-0.4783;1.058
5.572000;-0.0641;-0.8633;-0.5834;1.044
5.577000;-0.0019;-0.8043;-0.7289;1.085
5.581000;-0.0163;-0.7676;-0.8671;1.158
5.587000;-0.0229;-0.6864;-0.9763;1.194
5.608000;-0.0259;-0.6493;-1.0662;1.249
5.609000;-0.0108;-0.5672;-1.1369;1.271
5.609000;0.0199;-0.4883;-1.1405;1.241
5.609000;0.0513;-0.4342;-1.1775;1.256
5.616000;0.1169;-0.4284;-1.2169;1.295
5.616000;0.1710;-0.3730;-1.2370;1.303
5.621000;0.2160;-0.3132;-1.2499;1.307
5.626000;0.2374;-0.2633;-1.2820;1.330
5.630000;0.2473;-0.2138;-1.2661;1.308
5.636000;0.3320;-0.1503;-1.2288;1.282
5.641000;0.4247;-0.0707;-1.1652;1.242
5.646000;0.5204;0.0080;-1.1710;1.281
5.650000;0.5732;0.0403;-1.2365;1.363
5.655000;0.6380;0.0482;-1.3520;1.496
5.660000;0.6696;0.0440;-1.4292;1.579
5.665000;0.7134;0.0520;-1.5589;1.715
5.671000;0.7189;0.0536;-1.5642;1.722
5.677000;0.7671;0.0898;-1.5790;1.758
5.680000;0.8100;0.1035;-1.5604;1.761
5.684000;0.8001;0.0995;-1.5418;1.740
5.690000;0.7541;0.1304;-1.5090;1.692
5.706000;0.7055;0.1485;-1.4284;1.600
5.707000;0.6377;0.1945;-1.3336;1.491
5.707000;0.5553;0.2250;-1.2509;1.387
5.717000;0.4847;0.2591;-1.1014;1.231
5.717000;0.4474;0.2796;-0.9688;1.103
5.721000;0.3525;0.2865;-0.8292;0.945
5.724000;0.2524;0.3344;-0.6993;0.815
5.729000;0.1566;0.3557;-0.6078;0.721
5.733000;0.0844;0.4081;-0.5092;0.658
5.738000;0.0265;0.4193;-0.4608;0.624
5.743000;-0.0244;0.4087;-0.3671;0.550
5.748000;-0.0131;0.4164;-0.3142;0.522
5.753000;0.0245;0.4373;-0.2899;0.525
5.758000;0.0649;0.4449;-0.2537;0.516
5.763000;0.0699;0.4178;-0.0980;0.435
5.768000;0.1497;0.5111;-0.4397;0.691
5.773000;0.1991;0.5570;-0.3937;0.711
5.778000;0.2828;0.6442;-0.4362;0.828
5.783000;0.3145;0.6729;-0.5791;0.942
5.789000;0.3566;0.7508;-0.6237;1.039
5.813000;0.3612;0.7994;-0.6731;1.106
5.814000;0.3471;0.8306;-0.7225;1.154
5.814000;0.2708;0.8569;-0.7837;1.192
5.815000;0.2062;0.8907;-0.8162;1.226
5.815000;0.1147;0.9585;-0.8271;1.271
5.818000;0.0226;0.9911;-0.7974;1.272
5.822000;-0.0511;1.1105;-0.7438;1.338
5.831000;-0.0750;1.1781;-0.6616;1.353
5.832000;-0.1140;1.2078;-0.6010;1.354
5.836000;-0.1486;1.2521;-0.5333;1.369
5.842000;-0.1688;1.2777;-0.4490;1.365
5.846000;-0.2222;1.2915;-0.3050;1.345
5.851000;-0.2517;1.3745;-0.1540;1.406
5.856000;-0.2835;1.4069;-0.0080;1.435
5.861000;-0.3220;1.4841;0.1307;1.524
5.866000;-0.3481;1.4888;0.2668;1.552
5.871000;-0.3330;1.4495;0.3812;1.535
5.877000;-0.3602;1.4116;0.4620;1.528
5.880000;-0.3315;1.3293;0.5427;1.474
5.885000;-0.3329;1.2580;0.6280;1.445
5.913000;-0.3214;1.2119;0.7085;1.440
5.913000;-0.3088;1.1264;0.7291;1.377
5.914000;-0.3386;1.0472;0.7664;1.341
5.914000;-0.3608;0.9553;0.8156;1.307
5.914000;-0.4016;0.8602;0.8360;1.265
5.915000;-0.4277;0.7718;0.9210;1.275
5.920000;-0.4540;0.6970;0.9963;1.298
5.925000;-0.4952;0.6551;1.0810;1.358
5.931000;-0.5422;0.5718;1.1442;1.389
5.935000;-0.6164;0.5188;1.1571;1.410
5.940000;-0.6748;0.4674;1.2322;1.481
5.954000;-0.7225;0.4057;1.3096;1.550
5.954000;-0.7043;0.3739;1.3008;1.526
5.955000;-0.7302;0.3222;1.3137;1.537
5.961000;-0.6943;0.3508;1.2859;1.503
5.963000;-0.6467;0.3116;1.3107;1.494
5.968000;-0.5798;0.3123;1.3452;1.498
5.973000;-0.4289;0.3409;1.3652;1.471
5.992000;-0.2971;0.3949;1.3853;1.471
5.993000;-0.1750;0.4770;1.4150;1.503
5.993000;-0.1010;0.6181;1.3706;1.507
5.993000;-0.0845;0.6819;1.3143;1.483
5.998000;-0.1083;0.7937;1.2725;1.504
6.003000;-0.1291;0.9245;1.2785;1.583
6.009000;-0.1373;1.0391;1.2464;1.629
6.012000;-0.1401;1.0251;1.2692;1.638
6.018000;-0.1877;1.0097;1.1248;1.523
6.022000;-0.2192;0.9623;1.0737;1.458
6.028000;-0.2821;0.8504;1.0488;1.379
6.035000;-0.4052;0.7459;0.9977;1.310
6.037000;-0.4522;0.5776;1.0301;1.265
6.043000;-0.5354;0.3917;1.0862;1.273
6.047000;-0.5883;0.1381;1.2402;1.380
6.054000;-0.6732;-0.1568;1.4678;1.622
6.057000;-0.7140;-0.4719;1.7095;1.912
6.070000;-0.8063;-0.8150;2.0177;2.321
6.071000;-0.8338;-1.1678;2.2872;2.700
6.072000;-0.8944;-1.4852;2.5086;3.049
6.078000;-0.9527;-1.7445;2.7704;3.410
6.082000;-0.9589;-1.9749;3.0008;3.718
6.086000;-0.8661;-2.1246;3.2166;3.951
6.095000;-0.7490;-2.2135;3.4203;4.142
6.096000;-0.6274;-2.1972;3.5019;4.182
6.100000;-0.5301;-2.1459;3.4975;4.137
6.106000;-0.4953;-2.0001;3.4142;3.988
6.124000;-0.3677;-1.8392;3.1734;3.686
6.127000;-0.2762;-1.6657;2.8637;3.324
6.127000;-0.2129;-1.4416;2.5448;2.932
6.128000;-0.1129;-1.1522;2.0878;2.387
6.130000;-0.0357;-0.8337;1.5718;1.780
6.135000;0.0191;-0.5618;1.0757;1.214
6.140000;0.0424;-0.3695;0.5134;0.634
6.144000;0.0155;-0.2100;-0.0027;0.211
6.149000;-0.0036;-0.0421;-0.5109;0.513
6.155000;-0.0360;0.0540;-0.9920;0.994
6.161000;-0.0718;0.1366;-1.3794;1.388
6.164000;-0.0745;0.2213;-1.7280;1.744
6.169000;-0.1085;0.2749;-2.0165;2.038
6.174000;-0.1497;0.2528;-2.2378;2.257
6.180000;-0.1763;0.2036;-2.3705;2.386
6.184000;-0.2603;0.1179;-2.4890;2.505
6.189000;-0.2729;0.0109;-2.5023;2.517
6.208000;-0.2865;-0.1530;-2.3749;2.397
6.209000;-0.3039;-0.3020;-2.1785;2.220
6.209000;-0.3306;-0.4747;-1.8584;1.946
6.210000;-0.2816;-0.5878;-1.5197;1.654
6.215000;-0.2411;-0.7522;-1.1482;1.394
6.218000;-0.1979;-0.8729;-0.8584;1.240
6.223000;-0.1543;-1.0085;-0.5715;1.169
6.230000;-0.0604;-1.0761;-0.3710;1.140
6.233000;0.0194;-1.1674;-0.1993;1.184
6.238000;0.0642;-1.1946;-0.1162;1.202
6.244000;0.0817;-1.2426;-0.0714;1.247
6.248000;0.0943;-1.2489;-0.0552;1.254
6.253000;0.0833;-1.2501;-0.0485;1.254
6.260000;0.1539;-1.2101;-0.0513;1.221
6.262000;0.1990;-1.1986;-0.0300;1.215
6.267000;0.2950;-1.1727;-0.0470;1.210
6.278000;0.3294;-1.1828;-0.0567;1.229
6.279000;0.3499;-1.1569;-0.0997;1.213
6.282000;0.3560;-1.0977;-0.1379;1.162
6.287000;0.3804;-1.0075;-0.1951;1.094
6.295000;0.4372;-0.8911;-0.3192;1.043
6.297000;0.4521;-0.7316;-0.5243;1.007
6.301000;0.4538;-0.6074;-0.7483;1.065
6.306000;0.4592;-0.5038;-0.9934;1.205
6.328000;0.4419;-0.4058;-1.2264;1.365
6.329000;0.4307;-0.2605;-1.4255;1.512
6.329000;0.4166;-0.1704;-1.5910;1.653
6.329000;0.3569;-0.0800;-1.7395;1.778
6.331000;0.3310;-0.0009;-1.7851;1.816
6.336000;0.2749;0.0835;-1.8378;1.860
6.341000;0.2578;0.1424;-1.8259;1.850
6.345000;0.2320;0.1734;-1.7902;1.813
6.351000;0.2499;0.1529;-1.7091;1.734
6.355000;0.2400;0.1429;-1.5875;1.612
6.360000;0.2741;0.1432;-1.4182;1.452
6.365000;0.3160;0.1390;-1.2325;1.280
6.370000;0.3728;0.1538;-1.0637;1.138
6.376000;0.4372;0.1466;-0.9213;1.030
6.380000;0.5090;0.1289;-0.8437;0.994
6.385000;0.5285;0.1079;-0.8043;0.968
6.390000;0.5579;0.0714;-0.7794;0.961
6.396000;0.5538;0.0295;-0.7663;0.946
6.399000;0.5472;0.0230;-0.7844;0.957
6.404000;0.5686;0.0208;-0.7833;0.968
6.432000;0.5367;0.0016;-0.7918;0.957
6.433000;0.5639;0.0326;-0.7978;0.978
6.434000;0.5522;0.0514;-0.7800;0.957
6.434000;0.5449;0.0626;-0.7860;0.958
6.434000;0.5443;0.0999;-0.8495;1.014
6.434000;0.4810;0.1749;-0.8865;1.024
6.439000;0.4174;0.1994;-0.7801;0.907
6.444000;0.4063;0.2882;-0.9128;1.040
6.448000;0.3734;0.3744;-0.8565;1.007
6.456000;0.3692;0.4363;-0.8958;1.063
6.458000;0.3940;0.4928;-0.9567;1.146
6.463000;0.4195;0.5372;-0.9982;1.209
6.468000;0.4678;0.5381;-1.0063;1.233
6.474000;0.5056;0.5605;-1.0430;1.288
6.478000;0.5187;0.5494;-0.9960;1.250
6.483000;0.5213;0.5673;-0.9611;1.232
6.488000;0.5229;0.5593;-0.8377;1.135
6.517000;0.5565;0.5711;-0.7169;1.072
6.518000;0.5736;0.5425;-0.5460;0.960
6.518000;0.5332;0.5121;-0.4399;0.860
6.519000;0.5189;0.4439;-0.3889;0.786
6.519000;0.5307;0.3885;-0.3022;0.724
6.519000;0.4971;0.3076;-0.2371;0.631
6.522000;0.4633;0.2086;-0.1506;0.530
6.529000;0.4006;0.1658;-0.0523;0.437
6.534000;0.3161;0.0930;0.0267;0.331
6.537000;0.2433;0.0211;0.1032;0.265
6.541000;0.1154;-0.0618;0.2034;0.242
6.546000;0.0374;-0.1198;0.3226;0.346
6.551000;-0.0507;-0.2102;0.4703;0.518
6.556000;-0.1156;-0.2711;0.6034;0.672
6.561000;-0.1289;-0.3194;0.7579;0.832
6.566000;-0.1081;-0.3700;0.8762;0.957
6.572000;-0.0413;-0.3778;0.9060;0.983
6.578000;-0.0004;-0.3954;0.8832;0.968
6.581000;0.0511;-0.4016;0.8604;0.951
6.586000;0.1471;-0.3988;0.8305;0.933
6.590000;0.3166;-0.3489;0.8485;0.971
6.596000;0.4471;-0.1873;0.9071;1.029
6.600000;0.5845;0.0207;0.9943;1.154
6.605000;0.6886;0.2150;1.0696;1.290
6.635000;0.7621;0.4119;1.1401;1.432
6.636000;0.7911;0.4752;1.1269;1.457
6.636000;0.8452;0.4676;0.9967;1.388
6.637000;0.7574;0.5802;0.8619;1.286
6.637000;0.6150;0.6676;0.6916;1.141
6.637000;0.4447;0.6713;0.3948;0.897
6.640000;0.3184;0.6452;0.2154;0.751
6.646000;0.1958;0.4662;0.1127;0.518
6.649000;0.0189;0.3435;0.1247;0.366
6.655000;-0.0100;0.0034;0.2464;0.247
6.659000;-0.2007;-0.1615;0.4562;0.524
6.665000;-0.4840;-0.2754;0.7587;0.941
6.669000;-0.8080;-0.5320;1.1324;1.489
6.674000;-1.1512;-0.9506;1.5509;2.153
6.680000;-1.4229;-1.3834;1.9736;2.799
6.683000;-1.5521;-1.7577;2.4554;3.395
6.688000;-1.5133;-1.9621;2.9821;3.877
6.717000;-1.3412;-2.0918;3.4939;4.287
6.718000;-1.1246;-2.1363;3.9525;4.632
6.719000;-0.8931;-2.0932;4.3127;4.876
6.719000;-0.6449;-2.0142;4.5267;4.996
6.720000;-0.3752;-1.9415;4.4848;4.901
6.720000;-0.1338;-1.7689;4.2136;4.572
6.722000;0.0496;-1.5734;3.6704;3.994
6.729000;0.1360;-1.3237;2.9558;3.242
6.733000;0.1295;-1.0953;2.2232;2.482
6.737000;0.1244;-0.8201;1.5107;1.723
6.742000;0.0978;-0.5515;0.8470;1.015
6.747000;0.0242;-0.2836;0.2226;0.361
6.754000;-0.0695;-0.0530;-0.2361;0.252
6.757000;-0.2189;0.1631;-0.6487;0.704
6.766000;-0.3552;0.3565;-1.0009;1.120
6.767000;-0.4858;0.4418;-1.2500;1.412
6.774000;-0.6066;0.4466;-1.3960;1.586
6.777000;-0.7756;0.4074;-1.5180;1.753
6.782000;-0.9457;0.3275;-1.5037;1.806
6.786000;-1.1131;0.2073;-1.4107;1.809
6.791000;-1.2429;0.1089;-1.2224;1.747
6.818000;-1.3549;0.0132;-0.9700;1.666
6.819000;-1.4236;-0.0613;-0.7061;1.590
6.820000;-1.4735;-0.1463;-0.4379;1.544
6.820000;-1.4403;-0.2569;-0.1964;1.476
6.820000;-1.3480;-0.3722;-0.0008;1.398
6.821000;-1.2420;-0.4932;0.1205;1.342
6.828000;-1.0696;-0.6376;0.2440;1.269
6.833000;-0.9018;-0.7798;0.2814;1.225
6.837000;-0.7620;-0.8751;0.3044;1.200
6.840000;-0.5632;-0.9219;0.2509;1.109
6.847000;-0.4007;-0.9350;0.1570;1.029
6.851000;-0.2739;-0.9482;0.0490;0.988
6.855000;-0.1465;-0.8970;-0.0039;0.909
6.860000;0.0031;-0.8773;-0.1092;0.884
6.865000;0.1559;-0.8270;-0.2048;0.866
6.870000;0.2831;-0.8228;-0.3456;0.936
6.875000;0.3558;-0.7261;-0.5292;0.966
6.880000;0.3933;-0.6419;-0.7890;1.090
6.894000;0.3761;-0.5130;-1.0555;1.232
6.895000;0.2948;-0.3362;-1.3552;1.427
6.896000;0.2373;-0.1946;-1.6640;1.692
6.922000;0.1390;-0.0803;-1.9533;1.960
6.923000;0.0666;0.0387;-2.1992;2.201
6.924000;-0.0182;0.1062;-2.4137;2.416
6.924000;-0.0464;0.2085;-2.5706;2.579
6.925000;-0.0871;0.2984;-2.6341;2.652
6.926000;-0.0997;0.3568;-2.6594;2.685
6.928000;-0.1126;0.4315;-2.6392;2.677
6.933000;-0.1348;0.4819;-2.6310;2.678
6.938000;-0.1729;0.5079;-2.5512;2.607
6.944000;-0.1983;0.5190;-2.3879;2.452
6.948000;-0.1650;0.5196;-2.2057;2.272
6.954000;-0.2214;0.4784;-1.9950;2.063
6.958000;-0.2022;0.4859;-1.7728;1.849
6.964000;-0.2008;0.4772;-1.5555;1.639
6.969000;-0.2050;0.4876;-1.3362;1.437
6.972000;-0.2942;0.5290;-1.1315;1.283
6.978000;-0.3442;0.5528;-0.9892;1.184
6.983000;-0.3912;0.5593;-0.8399;1.082
6.988000;-0.4569;0.5867;-0.7672;1.068
6.992000;-0.5177;0.5775;-0.7162;1.056
6.997000;-0.5571;0.5560;-0.6484;1.020
7.002000;-0.6348;0.5222;-0.6190;1.029
7.007000;-0.6217;0.4882;-0.5944;0.989
7.045000;-0.6209;0.4375;-0.5889;0.961
7.046000;-0.5870;0.3942;-0.6169;0.938
7.046000;-0.5343;0.3584;-0.5898;0.873
7.046000;-0.4963;0.3016;-0.5820;0.822
7.047000;-0.4230;0.2597;-0.5263;0.723
7.047000;-0.4341;0.1898;-0.4779;0.673
7.047000;-0.4030;0.1446;-0.3866;0.577
7.048000;-0.4039;0.0786;-0.2810;0.498
7.053000;-0.4273;0.0369;-0.1898;0.469
7.056000;-0.4089;0.0169;-0.0534;0.413
7.062000;-0.3913;-0.0009;0.0160;0.392
7.068000;-0.3939;0.0190;0.0757;0.402
7.071000;-0.3782;0.0261;0.1092;0.395
7.076000;-0.3560;0.0677;0.1689;0.400
7.083000;-0.3245;0.1341;0.2166;0.413
7.086000;-0.2620;0.2108;0.2188;0.401
7.090000;-0.2402;0.2856;0.2737;0.463
7.097000;-0.1824;0.3845;0.0011;0.426
7.100000;-0.1791;0.4285;0.3455;0.579
7.105000;-0.1247;0.4995;0.1517;0.537
7.110000;-0.0790;0.5611;0.0012;0.567
7.127000;-0.0725;0.6258;-0.0224;0.630
7.127000;-0.0571;0.6628;-0.1989;0.694
7.128000;-0.1093;0.7152;-0.3035;0.785
7.131000;-0.2024;0.7076;-0.4367;0.856
7.134000;-0.2719;0.7024;-0.5053;0.907
7.139000;-0.3703;0.6939;-0.4973;0.931
7.144000;-0.4240;0.6699;-0.3985;0.887
7.149000;-0.4527;0.6668;-0.2259;0.837
7.154000;-0.4855;0.6103;-0.0129;0.780
7.159000;-0.5278;0.5387;0.2118;0.783
7.164000;-0.6229;0.4252;0.4219;0.864
7.168000;-0.6776;0.3244;0.6126;0.969
7.173000;-0.7542;0.2243;0.7982;1.121
7.179000;-0.8697;0.1488;0.9263;1.279
7.183000;-0.9620;0.0737;1.0924;1.458
7.188000;-1.0022;-0.0180;1.2130;1.574
7.193000;-1.0572;-0.1241;1.4099;1.767
7.199000;-1.0359;-0.1874;1.5874;1.905
7.203000;-0.9193;-0.1989;1.8198;2.048
7.207000;-0.7149;-0.1853;2.0160;2.147
7.236000;-0.5185;-0.1139;2.1570;2.221
7.237000;-0.3398;0.0053;2.1905;2.217
7.237000;-0.2048;0.1076;2.1380;2.150
7.238000;-0.1608;0.1357;1.9924;2.003
7.238000;-0.1257;0.1448;1.7539;1.764
7.238000;-0.1540;0.1427;1.5015;1.516
7.243000;-0.2000;0.0365;1.2255;1.242
7.248000;-0.2802;-0.0338;0.9714;1.012
7.253000;-0.3463;-0.1056;0.7679;0.849
7.257000;-0.3988;-0.1641;0.6601;0.788
7.262000;-0.4187;-0.1798;0.6791;0.818
7.267000;-0.3666;-0.1663;0.7242;0.829
7.275000;-0.2675;-0.1500;0.8385;0.893
7.276000;-0.2011;-0.1831;0.9190;0.958
7.281000;-0.1461;-0.2802;1.0017;1.050
7.286000;-0.1075;-0.3431;1.1247;1.181
7.291000;-0.0777;-0.4247;1.2762;1.347
7.310000;-0.0161;-0.4443;1.3628;1.433
7.310000;-0.0056;-0.4979;1.4301;1.514
7.310000;-0.0403;-0.5312;1.4591;1.553
7.315000;-0.0858;-0.6423;1.5357;1.667
7.315000;-0.1773;-0.7931;1.5812;1.778
7.320000;-0.2909;-0.9380;1.6552;1.925
7.325000;-0.3669;-1.0587;1.7650;2.091
7.332000;-0.4317;-1.1265;1.8628;2.219
7.335000;-0.4550;-1.1466;1.9317;2.292
7.340000;-0.4491;-1.1790;2.0198;2.381
7.345000;-0.3691;-1.1454;2.1149;2.433
7.350000;-0.2519;-1.1158;2.1312;2.419
7.355000;-0.1196;-1.0765;2.0830;2.348
7.359000;-0.0276;-1.0514;1.9752;2.238
7.364000;0.1006;-1.0146;1.7815;2.053
7.370000;0.2505;-0.9469;1.5213;1.809
7.374000;0.4125;-0.8745;1.1755;1.522
7.382000;0.5700;-0.7684;0.7585;1.221
7.384000;0.7022;-0.6547;0.2847;1.001
7.389000;0.7450;-0.5375;-0.1884;0.938
7.393000;0.7586;-0.4498;-0.6466;1.094
7.422000;0.7126;-0.3021;-1.0827;1.331
7.423000;0.6769;-0.2514;-1.4275;1.600
7.423000;0.6420;-0.1270;-1.6787;1.802
7.423000;0.5819;-0.0577;-1.8699;1.959
7.424000;0.5517;0.0264;-2.0659;2.138
7.424000;0.4989;0.0201;-2.0896;2.148
7.429000;0.4406;0.0170;-2.0633;2.110
7.436000;0.3430;-0.0213;-1.9917;2.021
7.440000;0.2921;-0.0880;-1.8486;1.874
7.443000;0.1848;-0.1877;-1.6604;1.681
7.449000;0.1428;-0.3189;-1.3530;1.397
7.453000;0.1178;-0.4337;-1.0413;1.134
7.458000;0.1304;-0.5500;-0.7013;0.901
7.463000;0.1726;-0.6729;-0.4477;0.826
7.468000;0.2152;-0.7986;-0.3115;0.884
7.472000;0.2896;-0.8888;-0.2089;0.958
7.477000;0.3574;-0.9443;-0.1709;1.024
7.483000;0.4044;-0.9678;-0.1878;1.066
7.487000;0.4977;-0.9837;-0.2573;1.132
7.494000;0.5202;-0.9535;-0.4054;1.159
7.499000;0.5420;-0.9134;-0.5940;1.217
7.501000;0.4989;-0.8221;-0.7631;1.228
7.506000;0.5061;-0.7417;-0.9176;1.284
7.511000;0.4730;-0.5979;-1.0433;1.292
7.539000;0.4714;-0.4908;-1.1161;1.307
7.540000;0.4895;-0.3606;-1.1339;1.287
7.540000;0.5345;-0.2673;-1.1636;1.308
7.540000;0.5416;-0.1872;-1.2387;1.365
7.541000;0.4942;-0.1200;-1.3399;1.433
7.541000;0.4640;-0.0917;-1.4482;1.523
7.546000;0.4034;-0.0611;-1.5228;1.577
7.551000;0.3338;0.0058;-1.6452;1.679
7.556000;0.3100;0.0566;-1.6622;1.692
7.560000;0.2818;0.1205;-1.6459;1.674
7.568000;0.2492;0.2096;-1.5770;1.610
7.570000;0.2457;0.2713;-1.4556;1.501
7.576000;0.2471;0.2838;-1.3774;1.428
7.581000;0.2368;0.2592;-1.2564;1.304
7.585000;0.2722;0.2332;-1.1522;1.207
7.590000;0.2890;0.1769;-0.9884;1.045
7.595000;0.3182;0.0949;-0.8272;0.891
7.600000;0.3670;0.0349;-0.6902;0.782
7.605000;0.3685;-0.0464;-0.5532;0.666
7.609000;0.3918;-0.1108;-0.3830;0.559
7.628000;0.3675;-0.1537;-0.2226;0.456
7.630000;0.3601;-0.1682;-0.0838;0.406
7.630000;0.3357;-0.2119;0.0572;0.401
7.630000;0.3156;-0.2105;0.1502;0.408
7.634000;0.2683;-0.2312;0.2527;0.435
7.639000;0.2512;-0.2191;0.3383;0.475
7.643000;0.2499;-0.2175;0.3904;0.512
7.650000;0.2140;-0.1647;0.3947;0.478
7.653000;0.1960;-0.1371;0.3774;0.447
7.658000;0.1769;-0.0990;0.3124;0.372
7.664000;0.1402;-0.0383;0.1925;0.241
7.668000;0.0982;0.0115;0.0776;0.126
7.673000;0.1063;0.0794;-0.0109;0.133
7.678000;0.0779;0.1462;-0.1542;0.226
7.683000;0.1089;0.1835;-0.2854;0.356
7.688000;0.0995;0.2154;-0.4308;0.492
7.693000;0.1454;0.2613;-0.5042;0.586
7.700000;0.1721;0.2781;-0.5967;0.680
7.707000;0.2133;0.3093;-0.6915;0.787
7.707000;0.2837;0.3023;-0.6953;0.809
7.756000;0.3547;0.3099;-0.6919;0.837
7.757000;0.4479;0.2914;-0.6671;0.855
7.757000;0.5175;0.2968;-0.5969;0.844
7.758000;0.5642;0.2832;-0.5100;0.812
7.758000;0.6023;0.3076;-0.3826;0.777
7.758000;0.5986;0.3436;-0.2698;0.741
7.758000;0.5670;0.3528;-0.2096;0.700
7.759000;0.4383;0.3829;-0.1400;0.599
7.759000;0.3611;0.4244;-0.0537;0.560
7.759000;0.2850;0.4296;-0.0320;0.517
7.764000;0.1835;0.3844;0.0660;0.431
7.766000;0.0831;0.3278;0.1114;0.356
7.775000;0.0194;0.3001;0.0420;0.304
7.776000;-0.0773;0.2325;0.2571;0.355
7.783000;-0.1257;0.1777;0.3429;0.406
7.786000;-0.1740;0.1047;0.3902;0.440
7.795000;-0.2366;0.0609;0.4686;0.529
7.795000;-0.2972;-0.0274;0.5589;0.634
7.808000;-0.3295;-0.0717;0.6777;0.757
7.809000;-0.3315;-0.0792;0.8130;0.882
7.810000;-0.3343;-0.0786;0.9458;1.006
7.815000;-0.2976;-0.0632;1.0904;1.132
7.822000;-0.2359;-0.0164;1.2467;1.269
7.825000;-0.1588;-0.0076;1.3479;1.357
7.830000;-0.0688;0.0417;1.4466;1.449
7.835000;0.0582;0.0905;1.4758;1.480
7.840000;0.1842;0.0811;1.4429;1.457
7.845000;0.2049;0.0970;1.3431;1.362
7.850000;0.2357;0.0762;1.1886;1.214
7.855000;0.1766;0.0213;1.0174;1.033
7.860000;0.1067;-0.0027;0.8274;0.834
7.866000;0.0359;-0.0165;0.7093;0.710
7.869000;0.0144;-0.0530;0.6272;0.630
7.874000;-0.0225;-0.0692;0.5834;0.588
7.879000;-0.0632;-0.1316;0.5682;0.587
7.884000;-0.1005;-0.2232;0.6009;0.649
7.889000;-0.1726;-0.3751;0.6191;0.744
7.893000;-0.2439;-0.5516;0.6493;0.886
7.932000;-0.3359;-0.7980;0.6507;1.083
7.933000;-0.4175;-1.0258;0.7190;1.320
7.933000;-0.4604;-1.2588;0.8422;1.583
7.934000;-0.5463;-1.4946;1.0154;1.888
7.934000;-0.5892;-1.6429;1.3175;2.187
7.934000;-0.5807;-1.8119;1.5857;2.477
7.935000;-0.5211;-1.8709;1.8585;2.688
7.935000;-0.4565;-1.8904;2.1189;2.876
7.937000;-0.3110;-1.8497;2.3313;2.992
7.942000;-0.1760;-1.7238;2.4120;2.970
7.948000;-0.0159;-1.5564;2.3731;2.838
7.955000;0.0528;-1.3604;2.1502;2.545
7.957000;0.0930;-1.1455;1.8034;2.138
7.962000;0.0652;-0.8806;1.3733;1.633
7.968000;0.0060;-0.6320;0.9487;1.140
7.972000;-0.0291;-0.3605;0.5509;0.659
7.977000;-0.0210;-0.1803;0.1919;0.264
7.985000;-0.0719;-0.0355;-0.2120;0.227
7.990000;-0.0804;0.1439;-0.6010;0.623
7.997000;-0.1273;0.3062;-0.9703;1.025
8.027000;-0.1358;0.4306;-1.3033;1.379
8.027000;-0.1750;0.4491;-1.5547;1.628
8.027000;-0.2405;0.4865;-1.6814;1.767
8.028000;-0.3251;0.4795;-1.8416;1.931
8.028000;-0.3904;0.4572;-1.9155;2.008
8.029000;-0.5107;0.3678;-1.9106;2.012
8.029000;-0.6696;0.2330;-1.8222;1.955
8.031000;-0.8511;0.0771;-1.6265;1.837
8.036000;-1.0340;-0.0852;-1.3307;1.687
8.040000;-1.1474;-0.2305;-0.9852;1.530
8.046000;-1.2808;-0.3466;-0.5590;1.440
8.051000;-1.2578;-0.4700;-0.1214;1.348
8.056000;-1.1729;-0.5806;0.2679;1.336
8.060000;-0.9975;-0.6696;0.7094;1.395
8.066000;-0.8374;-0.7506;1.0643;1.548
8.070000;-0.6185;-0.8604;1.3209;1.693
8.075000;-0.4149;-0.9907;1.5031;1.847
8.080000;-0.1734;-1.0899;1.5466;1.900
8.084000;0.0038;-1.1994;1.4992;1.920
8.089000;0.2035;-1.2525;1.3445;1.849
8.094000;0.3668;-1.2402;1.0776;1.683
8.102000;0.4776;-1.2528;0.8158;1.569
8.104000;0.5081;-1.2041;0.5018;1.400
8.109000;0.5350;-1.1130;0.2623;1.262
8.138000;0.5083;-0.9358;0.0254;1.065
8.139000;0.4828;-0.7179;-0.1443;0.877
8.139000;0.4441;-0.5377;-0.3066;0.762
8.139000;0.4398;-0.4116;-0.4185;0.733
8.140000;0.4048;-0.3011;-0.5997;0.784
8.140000;0.3335;-0.2610;-0.7112;0.828
8.143000;0.2906;-0.1645;-0.8418;0.906
8.149000;0.2209;-0.0495;-0.9698;0.996
8.154000;0.1721;0.0581;-1.0714;1.087
8.159000;0.0839;0.1991;-1.1513;1.171
8.163000;0.0303;0.3589;-1.2120;1.264
8.167000;-0.0461;0.4829;-1.2846;1.373
8.173000;-0.1189;0.5807;-1.3618;1.485
8.177000;-0.1352;0.6473;-1.4508;1.594
8.184000;-0.1209;0.6925;-1.5134;1.669
8.195000;-0.1114;0.7307;-1.5878;1.751
8.196000;-0.0821;0.7691;-1.6383;1.812
8.197000;-0.0614;0.8078;-1.6552;1.843
8.213000;-0.0441;0.8274;-1.7032;1.894
8.214000;0.0227;0.8403;-1.6723;1.872
8.214000;0.0390;0.8370;-1.6032;1.809
8.217000;0.0068;0.8103;-1.5008;1.706
8.221000;-0.0023;0.7842;-1.3938;1.599
8.226000;-0.0602;0.7252;-1.2677;1.462
8.231000;-0.1005;0.7123;-1.1323;1.341
8.236000;-0.1525;0.6710;-0.9923;1.208
8.241000;-0.2067;0.6496;-0.8740;1.108
8.246000;-0.2324;0.6383;-0.7438;1.007
8.253000;-0.2993;0.5844;-0.6377;0.915
8.256000;-0.3384;0.5238;-0.5270;0.816
8.262000;-0.3713;0.4948;-0.4307;0.754
8.266000;-0.3719;0.4636;-0.3416;0.686
8.271000;-0.3811;0.4538;-0.2575;0.646
8.275000;-0.3556;0.4681;-0.2092;0.624
8.280000;-0.3189;0.4748;-0.1156;0.584
8.286000;-0.3283;0.4237;-0.0651;0.540
8.290000;-0.2972;0.4054;-0.0099;0.503
8.294000;-0.2975;0.3480;-0.0073;0.458
8.301000;-0.2762;0.3111;0.0072;0.416
8.304000;-0.2668;0.2827;0.0145;0.389
8.310000;-0.2239;0.2725;-0.0068;0.353
8.314000;-0.2196;0.2731;-0.0496;0.354
8.340000;-0.1676;0.2587;-0.1091;0.327
8.340000;-0.1732;0.2625;-0.1709;0.358
8.340000;-0.1260;0.2778;-0.2542;0.397
8.341000;-0.0883;0.2949;-0.2871;0.421
8.341000;-0.0695;0.3618;-0.3295;0.494
8.344000;-0.0717;0.4281;-0.3433;0.553
8.351000;-0.0541;0.4966;-0.3713;0.622
8.354000;-0.0266;0.5191;-0.4161;0.666
8.358000;-0.0224;0.5679;-0.4273;0.711
8.364000;-0.0222;0.5975;-0.4529;0.750
8.368000;0.0148;0.6299;-0.4235;0.759
8.373000;0.0194;0.6386;-0.3607;0.734
8.378000;0.0776;0.6454;-0.2287;0.689
8.384000;0.0983;0.6357;-0.1137;0.653
8.388000;0.1246;0.6234;-0.0346;0.637
8.393000;0.1446;0.5990;0.0133;0.616
8.398000;0.0941;0.5528;0.0084;0.561
8.403000;0.0138;0.5068;0.0036;0.507
8.407000;-0.0697;0.4563;0.0489;0.464
8.412000;-0.1589;0.4159;0.0870;0.454
8.436000;-0.2178;0.3571;0.2014;0.464
8.437000;-0.2707;0.2657;0.3324;0.504
8.437000;-0.3104;0.1486;0.5683;0.664
8.437000;-0.3614;0.0773;0.5530;0.665
8.437000;-0.4788;-0.0131;0.9249;1.042
8.442000;-0.6225;-0.0916;1.1147;1.280
8.447000;-0.6753;-0.1128;1.2231;1.402
8.452000;-0.6785;-0.1156;1.4699;1.623
8.456000;-0.6040;-0.0640;1.6329;1.742
8.462000;-0.4406;0.0221;1.7957;1.849
8.466000;-0.2437;0.1544;1.8748;1.897
8.471000;-0.0442;0.2607;1.8128;1.832
8.476000;0.0987;0.3527;1.6339;1.674
8.480000;0.1735;0.4063;1.3406;1.412
8.485000;0.1315;0.3909;0.9617;1.046
8.491000;0.0691;0.3531;0.5618;0.667
8.495000;-0.0701;0.2481;0.2245;0.342
8.502000;-0.2333;0.2017;0.0454;0.312
8.505000;-0.3127;0.1810;-0.0977;0.374
8.515000;-0.4087;0.1869;-0.1093;0.463
8.515000;-0.4741;0.1791;-0.0063;0.507
8.538000;-0.5336;0.1724;0.1897;0.592
8.538000;-0.5904;0.1167;0.4977;0.781
8.539000;-0.5501;0.0023;0.8434;1.007
8.539000;-0.5040;-0.1427;1.1695;1.282
8.540000;-0.4672;-0.2685;1.4570;1.553
8.544000;-0.4010;-0.3784;1.6676;1.756
8.551000;-0.3266;-0.4825;1.8731;1.962
8.556000;-0.2725;-0.5837;2.0187;2.119
8.559000;-0.2839;-0.6948;2.1282;2.257
8.564000;-0.2883;-0.8065;2.1946;2.356
8.571000;-0.3261;-0.9576;2.2538;2.470
8.575000;-0.3655;-1.1003;2.2317;2.515
8.579000;-0.3495;-1.2397;2.2241;2.570
8.585000;-0.3233;-1.3641;2.1854;2.596
8.589000;-0.2896;-1.4065;2.1684;2.601
8.594000;-0.1747;-1.3838;2.1634;2.574
8.598000;-0.0797;-1.3227;2.0867;2.472
8.605000;0.0234;-1.2739;1.9696;2.346
8.608000;0.0985;-1.2037;1.7093;2.093
8.613000;0.1791;-1.0812;1.3611;1.747
8.651000;0.2484;-0.9539;0.9559;1.373
8.652000;0.2996;-0.7995;0.5036;0.991
8.652000;0.3474;-0.6343;0.0949;0.729
8.652000;0.3878;-0.4505;-0.2607;0.649
8.653000;0.4334;-0.3027;-0.5728;0.779
8.653000;0.4103;-0.1382;-0.8677;0.970
8.653000;0.3503;-0.0183;-1.1671;1.219
8.655000;0.2918;0.0335;-1.4135;1.444
8.657000;0.2520;0.0897;-1.5928;1.615
8.663000;0.2449;0.1001;-1.7600;1.780
8.667000;0.2419;0.0727;-1.8506;1.868
8.672000;0.2191;0.0819;-1.8767;1.891
8.677000;0.2716;0.0491;-1.8766;1.897
8.682000;0.2247;0.0009;-1.7907;1.805
8.687000;0.1687;-0.0677;-1.6978;1.708
8.691000;0.1655;-0.1706;-1.5120;1.531
8.697000;0.1543;-0.3226;-1.2908;1.339
8.703000;0.1515;-0.4495;-1.0938;1.192
8.706000;0.1539;-0.6425;-0.8972;1.114
8.711000;0.1617;-0.7637;-0.6985;1.047
8.716000;0.2081;-0.9186;-0.4858;1.060
8.751000;0.2194;-1.0216;-0.3498;1.102
8.752000;0.2364;-1.0977;-0.1924;1.139
8.752000;0.2711;-1.1688;-0.0543;1.201
8.752000;0.3043;-1.2235;0.0215;1.261
8.752000;0.3318;-1.2792;0.0735;1.324
8.753000;0.3392;-1.2404;0.1183;1.291
8.753000;0.3985;-1.1821;0.1416;1.255
8.756000;0.4714;-1.0947;0.1339;1.199
8.760000;0.4933;-1.0649;0.0593;1.175
8.765000;0.5195;-0.9802;-0.0294;1.110
8.770000;0.5357;-0.9125;-0.1897;1.075
8.775000;0.5204;-0.7659;-0.3497;0.990
8.780000;0.4498;-0.6050;-0.5214;0.917
8.787000;0.4122;-0.4938;-0.7766;1.008
8.789000;0.3507;-0.3652;-0.9955;1.117
8.794000;0.2892;-0.2521;-1.1855;1.246
8.799000;0.2401;-0.1039;-1.3226;1.348
8.833000;0.2100;-0.0015;-1.4285;1.444
8.834000;0.1779;0.0934;-1.4770;1.491
8.835000;0.1890;0.2002;-1.5372;1.562
8.835000;0.1957;0.3163;-1.5688;1.612
8.835000;0.2340;0.3751;-1.6003;1.660
8.835000;0.2492;0.4390;-1.6054;1.683
8.836000;0.2461;0.4651;-1.5843;1.669
8.838000;0.2321;0.4966;-1.5274;1.623
8.843000;0.2815;0.4905;-1.3916;1.502
8.848000;0.3105;0.4659;-1.2609;1.380
8.856000;0.3622;0.4393;-1.0729;1.215
8.858000;0.3910;0.4534;-0.9043;1.085
8.863000;0.3607;0.4457;-0.7765;0.965
8.868000;0.3070;0.4399;-0.6943;0.877
8.872000;0.1918;0.3933;-0.5859;0.731
8.878000;0.0916;0.3610;-0.4849;0.611
8.883000;-0.0154;0.3384;-0.3600;0.494
8.887000;-0.0889;0.2848;-0.2019;0.360
8.894000;-0.0981;0.2768;-0.0319;0.295
8.897000;-0.1482;0.2661;0.0685;0.312
8.903000;-0.1844;0.2313;0.1687;0.341
8.907000;-0.2311;0.2195;0.2187;0.387
8.915000;-0.2834;0.1569;0.2423;0.405
8.916000;-0.2888;0.1224;0.2635;0.410
8.955000;-0.2545;0.0922;0.2991;0.403
8.955000;-0.2168;0.0566;0.2844;0.362
8.956000;-0.1586;0.0275;0.3079;0.347
8.956000;-0.0968;0.0381;0.2980;0.316
8.956000;-0.0362;0.0477;0.2427;0.250
8.956000;0.0475;0.0730;0.1707;0.192
8.957000;0.1639;0.1424;0.0941;0.237
8.957000;0.2509;0.2179;0.0558;0.337
8.961000;0.3447;0.2848;-0.0708;0.453
8.966000;0.4313;0.3527;-0.1543;0.578
8.970000;0.5084;0.4218;-0.2734;0.715
8.975000;0.5286;0.5186;-0.3877;0.836
8.980000;0.5546;0.6144;-0.4755;0.955
8.987000;0.6005;0.6977;-0.5488;1.072
8.991000;0.6043;0.7233;-0.5742;1.104
8.995000;0.5590;0.7535;-0.6020;1.115
9.000000;0.5483;0.7815;-0.5987;1.127
9.030000;0.4624;0.8001;-0.5906;1.097
9.031000;0.3923;0.8429;-0.5587;1.085
9.031000;0.2851;0.8720;-0.5554;1.072
9.031000;0.1478;0.8970;-0.4590;1.018
9.031000;0.0209;0.9060;-0.3532;0.973
9.031000;-0.0623;0.8896;-0.2881;0.937
9.035000;-0.1260;0.8409;-0.2111;0.876
9.039000;-0.1895;0.7432;-0.1415;0.780
9.044000;-0.2288;0.6375;-0.0194;0.678
9.049000;-0.2298;0.4949;0.1073;0.556
9.055000;-0.2094;0.3679;0.2553;0.494
9.059000;-0.2489;0.2420;0.4295;0.552
9.064000;-0.2530;0.1288;0.6034;0.667
9.070000;-0.2626;0.0855;0.7412;0.791
9.076000;-0.2183;0.0423;0.8215;0.851
9.079000;-0.1368;0.0687;0.9041;0.917
9.084000;0.0013;0.1380;0.9890;0.999
9.089000;0.1242;0.2547;1.0309;1.069
9.094000;0.2129;0.3658;0.8575;0.956
9.098000;0.3284;0.5024;0.8948;1.077
9.106000;0.3661;0.5352;0.9128;1.120
9.117000;0.3890;0.6027;0.6273;0.953
9.117000;0.3666;0.6097;0.5454;0.896
9.118000;0.3471;0.5516;0.4252;0.778
9.162000;0.2663;0.4840;0.3219;0.639
9.163000;0.1429;0.4481;0.2403;0.528
9.164000;0.1009;0.4323;0.1850;0.481
9.164000;0.0365;0.3609;0.1799;0.405
9.164000;-0.0387;0.3038;0.1653;0.348
9.164000;-0.1376;0.2183;0.2103;0.333
9.165000;-0.2316;0.0641;0.2864;0.374
9.165000;-0.3070;-0.1013;0.3671;0.489
9.166000;-0.3901;-0.3301;0.4835;0.704
9.167000;-0.5125;-0.5868;0.6571;1.019
9.175000;-0.6094;-0.8664;0.8879;1.382
9.176000;-0.6622;-1.1362;1.1781;1.766
9.182000;-0.7095;-1.3677;1.4416;2.110
9.188000;-0.6873;-1.5071;1.7527;2.412
9.191000;-0.6149;-1.6006;2.0634;2.683
9.196000;-0.4264;-1.6111;2.3809;2.906
9.201000;-0.1843;-1.6524;2.6073;3.092
9.222000;0.0658;-1.6254;2.7234;3.172
9.223000;0.2701;-1.5838;2.6745;3.120
9.223000;0.4248;-1.4684;2.5062;2.936
9.224000;0.4973;-1.3275;2.2281;2.641
9.226000;0.5393;-1.1445;1.9027;2.285
9.230000;0.5395;-1.0123;1.5800;1.953
9.236000;0.4993;-0.8445;1.2601;1.597
9.240000;0.4312;-0.6839;0.8810;1.196
9.245000;0.3096;-0.4743;0.5741;0.806
9.250000;0.1773;-0.2798;0.3274;0.466
9.255000;0.0551;-0.0966;-0.0169;0.113
9.259000;0.0191;0.0449;-0.3056;0.309
9.265000;-0.1179;0.1440;-0.5485;0.579
9.270000;-0.2252;0.1677;-0.7838;0.833
9.275000;-0.3463;0.2057;-1.0188;1.096
9.280000;-0.4532;0.1916;-1.1627;1.263
9.284000;-0.5916;0.2410;-1.2778;1.429
9.292000;-0.7209;0.2156;-1.3426;1.539
9.294000;-0.8916;0.1327;-1.3381;1.613
9.299000;-1.0892;0.0640;-1.2167;1.634
9.328000;-1.1754;-0.0402;-1.0620;1.585
9.328000;-1.2842;-0.1256;-0.8026;1.520
9.328000;-1.3494;-0.1902;-0.5436;1.467
9.329000;-1.3929;-0.2558;-0.2874;1.445
9.329000;-1.3933;-0.3927;-0.0292;1.448
9.329000;-1.3579;-0.5007;0.1378;1.454
9.334000;-1.2890;-0.6094;0.3403;1.466
9.339000;-1.1531;-0.7359;0.5211;1.464
9.343000;-0.9066;-0.7906;0.6587;1.371
9.348000;-0.6715;-0.8604;0.7507;1.325
9.354000;-0.5166;-0.8794;0.7829;1.286
9.358000;-0.3119;-0.9434;0.7410;1.239
9.362000;-0.1335;-0.9552;0.6610;1.169
9.368000;0.0047;-0.9507;0.5309;1.089
9.374000;0.1031;-0.9492;0.4082;1.038
9.378000;0.1929;-0.8883;0.2714;0.949
9.383000;0.2979;-0.7920;0.0869;0.851
9.390000;0.3654;-0.7366;-0.0901;0.827
9.394000;0.3569;-0.6332;-0.3123;0.791
9.397000;0.3539;-0.5698;-0.5366;0.859
9.437000;0.2916;-0.4980;-0.7535;0.949
9.438000;0.2415;-0.4245;-0.9677;1.084
9.438000;0.1670;-0.3127;-1.1027;1.158
9.438000;0.1228;-0.2270;-1.1540;1.182
9.439000;0.0894;-0.0975;-1.2004;1.208
9.439000;-0.0097;-0.0437;-1.2397;1.240
9.439000;-0.0600;0.0487;-1.2382;1.241
9.439000;-0.1521;0.1273;-1.2225;1.238
9.441000;-0.2334;0.2512;-1.2450;1.291
9.446000;-0.3010;0.3705;-1.2603;1.348
9.451000;-0.3571;0.4847;-1.2852;1.419
9.457000;-0.4200;0.5891;-1.2503;1.445
9.461000;-0.3991;0.6765;-1.2632;1.487
9.465000;-0.3943;0.7110;-1.2474;1.489
9.471000;-0.3338;0.7475;-1.2172;1.467
9.476000;-0.2770;0.7525;-1.1942;1.438
9.481000;-0.2144;0.7334;-1.1569;1.386
9.488000;-0.1604;0.7067;-1.1484;1.358
9.490000;-0.1702;0.6726;-1.1398;1.334
9.494000;-0.1864;0.6983;-1.1838;1.387
9.500000;-0.2046;0.6716;-1.2063;1.396
9.526000;-0.3064;0.6886;-1.2048;1.421
9.527000;-0.3651;0.6829;-1.1746;1.407
9.527000;-0.4144;0.6835;-1.0776;1.342
9.527000;-0.4476;0.6518;-0.9759;1.256
9.527000;-0.4435;0.6309;-0.8026;1.113
9.530000;-0.4213;0.6087;-0.6248;0.969
9.537000;-0.3692;0.6016;-0.4591;0.842
9.540000;-0.3184;0.5636;-0.3223;0.723
9.544000;-0.2663;0.5305;-0.2550;0.646
9.549000;-0.2151;0.5138;-0.1758;0.584
9.555000;-0.1787;0.4847;-0.1325;0.533
9.559000;-0.1091;0.4909;-0.0773;0.509
9.564000;-0.0849;0.4774;-0.0820;0.492
9.569000;-0.0486;0.4678;-0.0340;0.472
9.573000;0.0003;0.4597;-0.0052;0.460
9.579000;-0.0291;0.4362;-0.0003;0.437
9.583000;-0.0314;0.4790;0.0523;0.483
9.588000;-0.0452;0.4893;0.0715;0.497
9.593000;-0.0151;0.5008;0.0930;0.510
9.598000;0.0231;0.5443;0.1527;0.566
9.605000;-0.0216;0.5651;0.1525;0.586
9.608000;-0.0275;0.5895;0.1668;0.613
9.612000;-0.0735;0.6366;0.1499;0.658
9.617000;-0.1432;0.6660;0.1450;0.696
9.639000;-0.2081;0.7254;0.1162;0.764
9.639000;-0.2537;0.8248;0.0684;0.866
9.639000;-0.2870;0.8638;0.0421;0.911
9.640000;-0.2891;0.9287;-0.0128;0.973
9.643000;-0.3216;0.9358;-0.0915;0.994
9.647000;-0.2961;0.9382;-0.1008;0.989
9.652000;-0.2817;0.9267;-0.1412;0.979
9.657000;-0.2427;0.9252;-0.1457;0.968
9.661000;-0.2056;0.9243;-0.1287;0.956
9.666000;-0.1819;0.9122;-0.1069;0.936
9.675000;-0.1381;0.9152;-0.0111;0.926
9.677000;-0.1025;0.9114;0.0559;0.919
9.681000;-0.1062;0.8915;0.1778;0.915
9.686000;-0.1325;0.8501;0.3138;0.916
9.693000;-0.1620;0.7943;0.3947;0.902
9.695000;-0.2090;0.6999;0.4396;0.853
9.701000;-0.3022;0.6150;0.4127;0.800
9.728000;-0.4176;0.5063;0.3955;0.766
9.729000;-0.5363;0.3813;0.4045;0.772
9.729000;-0.6342;0.3120;0.4805;0.855
9.729000;-0.7861;0.2273;0.6041;1.017
9.730000;-0.9235;0.2033;0.7874;1.231
9.730000;-1.0263;0.1687;1.0278;1.462
9.735000;-1.0691;0.1519;1.2296;1.636
9.740000;-1.0605;0.1000;1.4360;1.788
9.745000;-0.9101;0.0965;1.5920;1.836
9.750000;-0.6089;0.1288;1.7453;1.853
9.756000;-0.2695;0.2034;1.7695;1.801
9.759000;0.0254;0.3031;1.6694;1.697
9.765000;0.2536;0.3025;1.6316;1.679
9.769000;0.3959;0.3218;1.0276;1.147
9.774000;0.3392;0.2393;0.7302;0.840
9.779000;0.2619;0.0796;0.4906;0.562
9.784000;0.1912;-0.0444;0.2727;0.336
9.789000;0.1081;-0.1681;0.1889;0.275
9.794000;0.0649;-0.2674;0.1602;0.318
9.799000;0.0057;-0.2677;0.2032;0.336
9.807000;-0.0373;-0.2977;0.3393;0.453
9.810000;-0.0940;-0.3211;0.4298;0.545
9.813000;-0.1177;-0.3308;0.5775;0.676
9.819000;-0.1451;-0.3027;0.8205;0.887
9.850000;-0.1338;-0.2919;1.0298;1.079
9.850000;-0.0365;-0.3180;1.1670;1.210
9.851000;0.0391;-0.3224;1.2372;1.279
9.851000;0.1223;-0.3265;1.2905;1.337
9.851000;0.1469;-0.3214;1.2650;1.313
9.851000;0.0900;-0.3383;1.1821;1.233
9.861000;0.0360;-0.3775;1.1567;1.217
9.861000;-0.0787;-0.4315;1.0525;1.140
9.862000;-0.1434;-0.4411;0.9819;1.086
9.867000;-0.2202;-0.4729;0.8540;1.001
9.875000;-0.3280;-0.5317;0.7885;1.006
9.877000;-0.4404;-0.5526;0.7709;1.046
9.882000;-0.5081;-0.5806;0.7845;1.100
9.891000;-0.6039;-0.5819;0.8577;1.200
9.892000;-0.6455;-0.5707;0.9261;1.265
9.896000;-0.5931;-0.5086;0.9920;1.263
9.902000;-0.5364;-0.4390;1.0315;1.243
9.910000;-0.4307;-0.4003;0.9586;1.125
9.916000;-0.3288;-0.2971;0.8403;0.950
9.917000;-0.2304;-0.2466;0.6074;0.695
9.953000;-0.1059;-0.2202;0.3676;0.441
9.953000;-0.0257;-0.1963;0.1281;0.236
9.954000;0.0543;-0.1557;-0.0920;0.189
9.954000;0.1089;-0.1536;-0.2568;0.318
9.954000;0.1389;-0.1227;-0.3640;0.408
9.954000;0.1586;-0.1085;-0.4042;0.448
9.954000;0.2089;-0.0725;-0.4491;0.501
9.955000;0.2679;-0.1274;-0.4892;0.572
9.960000;0.2952;-0.1320;-0.5530;0.641
9.965000;0.3718;-0.0908;-0.5284;0.652
9.970000;0.3557;-0.1663;-0.5922;0.711
9.975000;0.3235;-0.2242;-0.6536;0.763
9.980000;0.3127;-0.2973;-0.6624;0.791
9.985000;0.2870;-0.3330;-0.6353;0.773
9.990000;0.2457;-0.4149;-0.6322;0.795
9.994000;0.2294;-0.4854;-0.5647;0.779
9.999000;0.1923;-0.5878;-0.5379;0.820
10.021000;0.2039;-0.6647;-0.5112;0.863
10.021000;0.1374;-0.7498;-0.4368;0.879
10.022000;0.1410;-0.7716;-0.3745;0.869
10.022000;0.1478;-0.8308;-0.3433;0.911
10.023000;0.1081;-0.8655;-0.2428;0.905
10.029000;0.1038;-0.8813;-0.1640;0.902
10.033000;0.1087;-0.8857;-0.0804;0.896
10.038000;0.1590;-0.8460;-0.0137;0.861
10.044000;0.2281;-0.7796;0.0052;0.812
10.048000;0.3145;-0.7752;-0.0690;0.839
10.053000;0.3966;-0.7566;-0.1694;0.871
10.058000;0.4219;-0.7763;-0.3365;0.946
10.063000;0.4262;-0.7265;-0.5441;1.003
10.068000;0.4118;-0.6736;-0.7394;1.082
10.075000;0.4096;-0.5573;-0.9010;1.136
10.078000;0.4049;-0.4420;-1.0671;1.224
10.083000;0.3594;-0.3175;-1.2140;1.305
10.088000;0.3186;-0.1789;-1.3582;1.406
10.093000;0.2798;-0.1286;-1.4640;1.496
10.102000;0.1979;-0.0298;-1.5482;1.561
10.103000;0.1827;0.0265;-1.5893;1.600
10.145000;0.1437;0.0766;-1.6160;1.624
10.145000;0.0692;0.1034;-1.6068;1.612
10.146000;0.0408;0.1524;-1.5308;1.539
10.146000;-0.0205;0.1949;-1.4620;1.475
10.146000;-0.0451;0.1948;-1.2977;1.313
10.146000;-0.0443;0.1903;-1.1527;1.169
10.147000;-0.0093;0.1760;-1.0031;1.018
10.147000;-0.0312;0.1086;-0.9087;0.916
10.147000;-0.0478;0.0886;-0.8335;0.840
10.156000;-0.0685;0.0472;-0.7321;0.737
10.156000;-0.0934;0.0314;-0.6428;0.650
10.161000;-0.0846;-0.0135;-0.5631;0.570
10.167000;-0.0756;-0.0255;-0.4620;0.469
10.172000;-0.0524;0.0096;-0.4041;0.408
10.176000;-0.0444;0.0105;-0.3773;0.380
10.181000;-0.0349;-0.0035;-0.3911;0.393
10.186000;-0.0188;0.0011;-0.4695;0.470
10.192000;0.0013;0.0076;-0.5238;0.524
10.195000;-0.0320;0.0426;-0.6115;0.614
10.200000;-0.0375;0.0729;-0.6776;0.683
10.208000;-0.0101;0.0938;-0.7389;0.745
10.210000;-0.0405;0.1389;-0.7905;0.804
10.215000;-0.0184;0.1271;-0.8230;0.833
10.220000;-0.0109;0.1180;-0.8123;0.821
10.261000;0.0109;0.1501;-0.8041;0.818
10.261000;0.0253;0.1874;-0.7816;0.804
10.261000;0.0825;0.2033;-0.7185;0.751
10.262000;0.1417;0.2359;-0.6769;0.731
10.262000;0.2196;0.2705;-0.6330;0.723
10.262000;0.2687;0.2760;-0.6250;0.734
10.262000;0.3394;0.2597;-0.6170;0.751
10.263000;0.4295;0.2336;-0.6042;0.777
10.264000;0.5150;0.2071;-0.5962;0.815
10.268000;0.5698;0.1732;-0.5620;0.819
10.275000;0.6300;0.1629;-0.5014;0.822
10.278000;0.6670;0.1975;-0.4506;0.829
10.283000;0.7022;0.1908;-0.3806;0.821
10.291000;0.6880;0.2267;-0.2964;0.783
10.293000;0.6817;0.2622;-0.2553;0.774
10.298000;0.6136;0.2824;-0.2214;0.711
10.303000;0.5652;0.3066;-0.2234;0.681
10.331000;0.4886;0.3352;-0.2015;0.626
10.331000;0.3864;0.3772;-0.1820;0.570
10.332000;0.3134;0.3925;-0.2103;0.545
10.332000;0.1933;0.4053;-0.2075;0.495
10.333000;0.1459;0.4255;-0.1808;0.485
10.333000;0.0803;0.4291;-0.1231;0.454
10.338000;0.0226;0.4044;-0.0511;0.408
10.343000;-0.0390;0.3899;0.0112;0.392
10.347000;-0.0978;0.3375;0.0806;0.361
10.355000;-0.1396;0.3121;0.1452;0.371
10.357000;-0.1380;0.2182;0.2287;0.345
10.361000;-0.1124;0.1394;0.4078;0.445
10.366000;-0.1039;0.0423;0.5125;0.525
10.371000;-0.0937;-0.0637;0.6171;0.627
10.376000;-0.0939;-0.1402;0.7359;0.755
10.381000;-0.0879;-0.2039;0.8879;0.915
10.386000;-0.0521;-0.1667;1.0111;1.026
10.392000;0.0423;-0.0958;1.1652;1.170
10.396000;0.1999;0.0587;1.2857;1.302
10.400000;0.3061;0.1933;1.3534;1.401
10.436000;0.4120;0.3269;1.3351;1.435
10.437000;0.4679;0.4232;1.2738;1.421
10.437000;0.3815;0.4130;1.1624;1.291
10.437000;0.2848;0.3874;1.0392;1.145
10.437000;0.1453;0.2969;0.9282;0.985
10.438000;0.0515;0.1279;0.8029;0.815
10.438000;-0.0210;0.0913;0.8451;0.850
10.440000;-0.0346;0.0485;1.0378;1.040
10.445000;-0.0332;0.1005;1.0294;1.035
10.450000;-0.0553;0.1350;1.0712;1.081
10.455000;-0.1542;0.0808;1.1081;1.122
10.460000;-0.2940;-0.0643;1.1330;1.172
10.464000;-0.4295;-0.2927;1.1697;1.280
10.469000;-0.5055;-0.5897;1.2636;1.483
10.474000;-0.5485;-0.9387;1.3932;1.767
10.479000;-0.5011;-1.2416;1.6277;2.108
10.484000;-0.4619;-1.5373;1.8977;2.486
10.492000;-0.4121;-1.7835;2.2128;2.872
10.495000;-0.3404;-1.9400;2.5323;3.208
10.498000;-0.2690;-2.0342;2.8132;3.482
10.503000;-0.1701;-2.0794;3.0053;3.658
10.534000;-0.0176;-2.0452;3.1541;3.759
10.535000;0.1217;-1.9301;3.1714;3.715
10.535000;0.2652;-1.8213;3.1003;3.605
10.536000;0.3393;-1.5809;2.8860;3.308
10.536000;0.3713;-1.3698;2.5692;2.935
10.536000;0.3604;-1.1614;2.1502;2.470
10.538000;0.3078;-0.9030;1.6959;1.946
10.543000;0.2497;-0.7111;1.3093;1.511
10.548000;0.2277;-0.5061;0.9232;1.077
10.555000;0.2182;-0.2755;0.5472;0.650
10.559000;0.1428;-0.0998;0.1599;0.236
10.563000;0.0754;0.0841;-0.1696;0.204
10.568000;-0.0003;0.2102;-0.4889;0.532
10.575000;-0.1015;0.2652;-0.8079;0.856
10.577000;-0.2482;0.2958;-1.0667;1.134
10.582000;-0.4342;0.2910;-1.2368;1.343
10.587000;-0.5456;0.2736;-1.3925;1.520
10.592000;-0.6786;0.2248;-1.4357;1.604
10.597000;-0.8413;0.1836;-1.3883;1.634
10.603000;-0.9365;0.1333;-1.2670;1.581
10.628000;-1.0650;0.0474;-1.0840;1.520
10.629000;-1.1535;-0.0219;-0.8464;1.431
10.629000;-1.1734;-0.1542;-0.6283;1.340
10.629000;-1.1394;-0.2472;-0.4107;1.236
10.629000;-1.0275;-0.3666;-0.2316;1.115
10.636000;-0.8755;-0.4941;-0.0694;1.008
10.636000;-0.6634;-0.5898;0.0256;0.888
10.642000;-0.4739;-0.6476;0.0920;0.808
10.646000;-0.2608;-0.7284;0.1798;0.794
10.651000;-0.0927;-0.7586;0.1745;0.784
10.656000;0.0861;-0.8058;0.1645;0.827
10.660000;0.2640;-0.8274;0.0972;0.874
10.666000;0.3769;-0.8955;-0.0177;0.972
10.671000;0.4316;-0.8855;-0.2233;1.010
10.677000;0.4619;-0.8713;-0.4476;1.083
10.681000;0.4408;-0.8518;-0.6980;1.186
10.685000;0.3872;-0.8386;-0.8739;1.272
10.690000;0.3747;-0.7759;-1.0400;1.351
10.695000;0.3526;-0.7607;-1.2036;1.467
10.700000;0.3400;-0.7333;-1.3024;1.533
10.705000;0.3082;-0.6838;-1.3700;1.562
10.710000;0.2114;-0.6313;-1.3993;1.550
10.715000;0.1138;-0.5803;-1.4668;1.582
10.719000;-0.0370;-0.4949;-1.4865;1.567
10.761000;-0.1598;-0.4182;-1.4487;1.516
10.762000;-0.2501;-0.3406;-1.4159;1.478
10.762000;-0.3290;-0.2715;-1.3543;1.420
10.762000;-0.3706;-0.2326;-1.2833;1.356
10.763000;-0.3652;-0.1669;-1.1550;1.223
10.763000;-0.3778;-0.1202;-1.0770;1.148
10.764000;-0.3580;-0.0524;-1.0206;1.083
10.764000;-0.2675;-0.0187;-1.0216;1.056
10.764000;-0.2302;0.0453;-1.0392;1.065
10.768000;-0.1911;0.1103;-1.1620;1.183
10.775000;-0.1350;0.1789;-1.3347;1.353
10.778000;-0.0880;0.2297;-1.5001;1.520
10.783000;-0.0564;0.2223;-1.6581;1.674
10.789000;0.0270;0.2526;-1.7992;1.817
10.793000;0.0740;0.3066;-1.8684;1.895
10.800000;0.0894;0.3222;-1.9591;1.987
10.806000;0.0994;0.3690;-1.9996;2.036
10.843000;0.0799;0.4135;-2.0352;2.078
10.844000;0.0525;0.4419;-2.0159;2.064
10.844000;0.0311;0.4445;-2.0349;2.083
10.844000;0.0320;0.4171;-2.0253;2.068
10.845000;0.0192;0.4053;-2.0133;2.054
10.845000;-0.0196;0.3616;-1.9774;2.010
10.846000;-0.0678;0.2910;-1.8985;1.922
10.846000;-0.0824;0.2633;-1.7888;1.810
10.847000;-0.1067;0.2497;-1.5931;1.616
10.852000;-0.1309;0.1855;-1.3499;1.369
10.857000;-0.1453;0.1662;-1.0018;1.026
10.862000;-0.0734;0.1458;-0.6399;0.660
10.866000;-0.0040;0.1018;-0.3022;0.319
10.871000;0.0343;0.0981;-0.0104;0.104
10.877000;0.0771;0.0672;0.1425;0.175
10.881000;0.0552;0.0257;0.2546;0.262
10.886000;0.0498;-0.0006;0.3451;0.349
10.894000;-0.0278;-0.0206;0.4379;0.439
10.896000;-0.0867;-0.0159;0.4875;0.495
10.900000;-0.1317;-0.0146;0.5300;0.546
10.905000;-0.1982;0.0091;0.5676;0.601
10.947000;-0.2674;0.0412;0.5383;0.602
10.948000;-0.3438;0.0410;0.5328;0.635
10.948000;-0.4661;0.0638;0.5107;0.694
10.948000;-0.6126;0.1407;0.4982;0.802
10.948000;-0.6901;0.1999;0.4952;0.873
10.949000;-0.7349;0.2945;0.4947;0.934
10.949000;-0.7421;0.3647;0.5444;0.990
10.949000;-0.7026;0.4770;0.5677;1.021
10.949000;-0.6164;0.5525;0.5814;1.012
10.954000;-0.5046;0.6364;0.5068;0.957
10.960000;-0.4008;0.6903;0.4250;0.904
10.965000;-0.3163;0.7911;0.2980;0.903
10.970000;-0.2316;0.8313;0.1400;0.874
10.976000;-0.1750;0.8566;0.0587;0.876
10.979000;-0.0881;0.9034;-0.0105;0.908
10.984000;-0.0449;0.9383;0.0158;0.940
10.989000;0.0001;0.9519;0.0612;0.954
10.995000;0.0111;0.9587;0.1495;0.970
10.999000;-0.0358;0.9535;0.3069;1.002
11.003000;-0.1008;0.9411;0.4091;1.031
11.056000;-0.2151;0.8954;0.4706;1.034
11.056000;-0.3168;0.8240;0.5774;1.055
11.057000;-0.4205;0.7434;0.6817;1.093
11.057000;-0.5647;0.6325;0.8050;1.169
11.057000;-0.6349;0.5034;0.9496;1.248
11.057000;-0.6888;0.3654;1.1586;1.397
11.057000;-0.7218;0.2135;1.3219;1.521
11.058000;-0.6814;0.0640;1.4923;1.642
11.058000;-0.6107;-0.0570;1.6409;1.752
11.058000;-0.4573;-0.1262;1.7750;1.837
11.063000;-0.2885;-0.0958;1.8755;1.900
11.067000;-0.1518;-0.0476;1.9138;1.920
11.067000;-0.0495;0.0422;1.9282;1.929
11.072000;0.0144;0.1254;1.8828;1.887
11.077000;0.0690;0.1568;1.7586;1.767
11.082000;-0.0091;0.1412;1.6680;1.674
11.087000;-0.1411;0.0693;1.5416;1.550
11.093000;-0.2670;0.0084;1.3963;1.422
11.097000;-0.3652;-0.0099;1.0504;1.112
11.101000;-0.4240;-0.1142;1.1830;1.262
11.106000;-0.4170;-0.1322;0.9831;1.076
11.137000;-0.3785;-0.1540;0.8887;0.978
11.137000;-0.3017;-0.1720;0.8470;0.915
11.137000;-0.2591;-0.2149;0.7647;0.836
11.138000;-0.1980;-0.2395;0.7184;0.783
11.138000;-0.1401;-0.3051;0.6984;0.775
11.138000;-0.1021;-0.3617;0.6473;0.749
11.142000;-0.0621;-0.4188;0.6441;0.771
11.146000;-0.0722;-0.4840;0.6289;0.797
11.151000;-0.1366;-0.5932;0.6161;0.866
11.155000;-0.2449;-0.7010;0.5746;0.939
11.161000;-0.3679;-0.8599;0.5833;1.102
11.165000;-0.4718;-1.0051;0.7305;1.329
11.170000;-0.5237;-1.1844;0.9349;1.597
11.175000;-0.5985;-1.2974;1.2227;1.881
11.180000;-0.5579;-1.3591;1.5985;2.171
11.185000;-0.4920;-1.3679;1.9644;2.444
11.190000;-0.4496;-1.3485;2.2605;2.670
11.195000;-0.3842;-1.3138;2.4296;2.789
11.200000;-0.2966;-1.2284;2.4480;2.755
11.206000;-0.1753;-1.1791;2.3207;2.609
11.212000;-0.1032;-1.1063;2.1027;2.378
11.215000;-0.0292;-0.9240;1.8038;2.027
11.219000;0.0278;-0.7351;1.3261;1.516
11.277000;0.0637;-0.5415;0.8132;0.979
11.279000;0.0268;-0.3474;0.3129;0.468
11.279000;-0.0002;-0.1400;-0.0792;0.161
11.280000;-0.0553;0.0165;-0.4086;0.413
11.280000;-0.0805;0.1231;-0.6612;0.677
11.280000;-0.1256;0.2422;-0.8083;0.853
11.280000;-0.1475;0.3573;-1.0245;1.095
11.281000;-0.1938;0.4328;-1.1783;1.270
11.281000;-0.1974;0.5047;-1.3225;1.429
11.282000;-0.2110;0.4586;-1.3709;1.461
11.282000;-0.2256;0.4027;-1.4337;1.506
11.283000;-0.2173;0.3275;-1.4677;1.519
11.283000;-0.2411;0.2789;-1.4373;1.484
11.288000;-0.2397;0.1564;-1.3018;1.333
11.293000;-0.2233;0.0455;-1.1187;1.142
11.298000;-0.2037;-0.0803;-0.8713;0.898
11.302000;-0.1504;-0.1807;-0.6434;0.685
11.311000;-0.0759;-0.3376;-0.4827;0.594
11.312000;-0.0050;-0.5058;-0.3580;0.620
11.317000;0.0764;-0.6974;-0.2861;0.758
11.322000;0.1422;-0.8313;-0.2118;0.870
11.351000;0.2091;-0.9556;-0.1614;0.991
11.352000;0.2390;-0.9896;-0.0848;1.022
11.352000;0.3159;-0.9911;-0.0417;1.041
11.352000;0.3398;-0.9942;-0.0298;1.051
11.352000;0.3921;-0.9370;-0.0656;1.018
11.352000;0.3512;-0.8748;-0.1276;0.951
11.356000;0.2959;-0.7833;-0.2159;0.865
11.363000;0.2549;-0.6817;-0.3112;0.791
11.367000;0.2113;-0.5530;-0.4231;0.728
11.371000;0.1917;-0.4163;-0.5539;0.719
11.376000;0.2102;-0.2883;-0.7372;0.819
11.381000;0.2099;-0.1950;-0.9274;0.971
11.386000;0.1937;-0.1169;-1.0719;1.096
11.397000;0.2571;-0.0512;-1.2020;1.230
11.398000;0.2732;0.0116;-1.3199;1.348
11.401000;0.2828;0.0676;-1.3995;1.429
11.405000;0.3215;0.1573;-1.4192;1.464
11.452000;0.3771;0.2235;-1.4748;1.539
11.453000;0.4426;0.2831;-1.4825;1.573
11.453000;0.4629;0.3051;-1.5069;1.606
11.453000;0.4742;0.3255;-1.4883;1.596
11.454000;0.4766;0.3251;-1.4793;1.588
11.454000;0.4554;0.3425;-1.4416;1.550
11.454000;0.4375;0.3873;-1.3419;1.464
11.454000;0.4613;0.3780;-1.2112;1.350
11.455000;0.4811;0.3815;-1.0449;1.212
11.455000;0.4514;0.3783;-0.8836;1.062
11.460000;0.4486;0.3560;-0.7344;0.931
11.465000;0.4467;0.3243;-0.5998;0.815
11.469000;0.3875;0.3113;-0.5011;0.706
11.474000;0.3380;0.2694;-0.4408;0.617
11.479000;0.2477;0.2824;-0.3496;0.513
11.483000;0.2122;0.2951;-0.3349;0.494
11.489000;0.1591;0.2669;-0.2891;0.424
11.497000;0.1031;0.2649;-0.2983;0.412
11.500000;0.0227;0.2677;-0.2980;0.401
11.503000;-0.0460;0.2730;-0.2618;0.381
11.508000;-0.0891;0.2999;-0.2305;0.389
11.550000;-0.0467;0.3029;-0.2445;0.392
11.551000;-0.0047;0.3032;-0.1725;0.349
11.551000;-0.0256;0.3533;-0.1532;0.386
11.551000;-0.0355;0.3241;-0.1889;0.377
11.552000;-0.0368;0.2803;-0.2078;0.351
11.552000;0.0090;0.2862;-0.2242;0.364
11.552000;0.0559;0.2892;-0.2502;0.386
11.552000;0.1279;0.3132;-0.2929;0.447
11.553000;0.1771;0.3509;-0.3642;0.536
11.559000;0.2373;0.3854;-0.4402;0.631
11.562000;0.2629;0.4195;-0.5041;0.707
11.567000;0.2970;0.4579;-0.6515;0.850
11.572000;0.3185;0.4745;-0.7510;0.944
11.577000;0.3566;0.5506;-0.8169;1.048
11.582000;0.3684;0.6026;-0.8420;1.099
11.587000;0.3880;0.6425;-0.8385;1.125
11.592000;0.4108;0.7112;-0.8110;1.154
11.597000;0.4869;0.7866;-0.7310;1.179
11.602000;0.4942;0.8233;-0.7300;1.206
11.607000;0.4711;0.8663;-0.7289;1.226
11.614000;0.4347;0.9136;-0.7183;1.241
11.616000;0.3757;0.9628;-0.7221;1.261
11.620000;0.3040;0.9878;-0.7186;1.259
11.626000;0.2217;1.0438;-0.6961;1.274
11.672000;0.1576;1.0808;-0.6210;1.256
11.673000;0.0778;1.1012;-0.5748;1.245
11.673000;0.0726;1.0907;-0.5476;1.223
11.673000;0.0633;1.0690;-0.4991;1.181
11.673000;0.0640;1.0312;-0.4529;1.128
11.674000;0.0722;0.9919;-0.4045;1.074
11.674000;0.1185;0.9349;-0.3562;1.007
11.674000;0.1143;0.8626;-0.2936;0.918
11.674000;0.0956;0.7776;-0.1833;0.805
11.675000;0.0913;0.7112;-0.0350;0.718
11.680000;0.0633;0.6847;0.1346;0.701
11.685000;0.0975;0.6477;0.3638;0.749
11.689000;0.1008;0.6047;0.5926;0.853
11.696000;0.1310;0.5768;0.8426;1.029
11.699000;0.2030;0.5805;1.1520;1.306
11.704000;0.2404;0.5007;1.4085;1.514
11.708000;0.2262;0.4061;1.6575;1.721
11.739000;0.2638;0.3514;1.8609;1.912
11.740000;0.2855;0.3244;1.9732;2.020
11.740000;0.2913;0.2746;2.0137;2.053
11.741000;0.3069;0.2695;1.9825;2.024
11.741000;0.2892;0.2375;1.9633;1.999
11.741000;0.2541;0.1720;1.8390;1.864
11.747000;0.2399;0.0640;1.7675;1.785
11.749000;0.1650;-0.0122;1.6721;1.680
11.753000;0.0817;-0.1087;1.5578;1.564
11.758000;0.0474;-0.2611;1.5271;1.550
11.764000;-0.0029;-0.4569;1.5873;1.652
11.768000;-0.0764;-0.6343;1.3964;1.536
11.772000;-0.1326;-0.8219;1.3994;1.628
11.778000;-0.1098;-1.0082;1.5576;1.859
11.783000;-0.1226;-1.1101;1.5507;1.911
11.788000;-0.1445;-1.2193;1.5892;2.008
11.798000;-0.1557;-1.3197;1.5536;2.044
11.800000;-0.1483;-1.3975;1.4296;2.005
11.802000;-0.0952;-1.4049;1.3608;1.958
11.808000;-0.0367;-1.3753;1.3016;1.894
11.868000;0.0326;-1.2972;1.2999;1.837
11.869000;0.0795;-1.2041;1.2959;1.771
11.869000;0.1542;-1.0866;1.3373;1.730
11.870000;0.2400;-0.9809;1.3978;1.724
11.870000;0.2934;-0.8825;1.3913;1.674
11.870000;0.3690;-0.7916;1.3681;1.623
11.870000;0.3777;-0.7126;1.2972;1.528
11.871000;0.4077;-0.6000;1.1524;1.362
11.871000;0.4275;-0.5303;0.9766;1.191
11.871000;0.4037;-0.4433;0.7247;0.941
11.871000;0.3101;-0.3100;0.4396;0.621
11.872000;0.2072;-0.2205;0.1860;0.355
11.874000;0.0785;-0.1147;-0.0051;0.139
11.875000;-0.0517;-0.0301;-0.2342;0.242
11.881000;-0.1856;0.0311;-0.4009;0.443
11.885000;-0.3062;0.0671;-0.5792;0.659
11.890000;-0.4473;0.0975;-0.7120;0.846
11.895000;-0.5870;0.0872;-0.8015;0.997
11.902000;-0.6873;0.0677;-0.9077;1.141
11.905000;-0.7911;-0.0108;-0.8561;1.166
11.937000;-0.8488;-0.0975;-0.7568;1.141
11.938000;-0.8994;-0.1901;-0.5908;1.093
11.938000;-0.9007;-0.2695;-0.3463;1.002
11.938000;-0.8557;-0.3288;-0.0591;0.919
11.939000;-0.8316;-0.4284;0.2133;0.960
11.939000;-0.7142;-0.5641;0.4423;1.012
11.939000;-0.5850;-0.6912;0.6709;1.127
11.944000;-0.3557;-0.7982;0.8275;1.203
11.949000;-0.1816;-0.9151;0.9097;1.303
11.953000;-0.0172;-0.9680;0.9274;1.341
11.958000;0.1435;-1.0797;0.8877;1.405
11.964000;0.2462;-1.1231;0.8719;1.443
11.968000;0.2869;-1.2207;0.8754;1.529
11.973000;0.3185;-1.2649;0.8263;1.544
11.978000;0.3771;-1.3253;0.7916;1.589
11.983000;0.3791;-1.3184;0.7761;1.576
11.988000;0.3294;-1.3303;0.6389;1.512
11.999000;0.3088;-1.3225;0.5519;1.466
12.000000;0.3321;-1.3190;0.4485;1.432
12.003000;0.3372;-1.2602;0.2901;1.336
12.009000;0.3646;-1.1530;0.1536;1.219
12.089000;0.3399;-1.0401;0.0339;1.095
12.090000;0.3824;-0.9096;-0.0736;0.989
12.091000;0.3812;-0.8352;-0.2097;0.942
12.091000;0.4366;-0.7162;-0.3600;0.913
12.091000;0.4428;-0.5930;-0.5913;0.947
12.091000;0.4786;-0.5033;-0.7388;1.014
12.092000;0.5292;-0.3992;-0.9004;1.118
12.092000;0.5611;-0.2276;-1.0092;1.177
12.092000;0.5814;-0.0748;-1.1466;1.288
12.092000;0.6125;0.0136;-1.2313;1.375
12.093000;0.5918;0.0067;-1.3947;1.515
12.094000;0.5320;0.0935;-1.5341;1.626
12.094000;0.4692;0.2215;-1.5895;1.672
12.095000;0.3849;0.2998;-1.6163;1.688
12.095000;0.3173;0.3977;-1.6621;1.738
12.095000;0.2549;0.4650;-1.7198;1.800
12.096000;0.1831;0.5663;-1.7463;1.845
12.096000;0.0832;0.5774;-1.8421;1.932
12.100000;-0.0779;0.5941;-1.8493;1.944
12.106000;-0.2332;0.6285;-1.8757;1.992
12.115000;-0.3753;0.6523;-1.8901;2.034
12.115000;-0.4635;0.6535;-1.8399;2.007
12.120000;-0.5242;0.6515;-1.7612;1.950
12.125000;-0.5360;0.6483;-1.6491;1.851
12.150000;-0.5566;0.6274;-1.4918;1.711
12.150000;-0.5313;0.5619;-1.3514;1.557
12.151000;-0.4723;0.4689;-1.2279;1.397
12.151000;-0.3968;0.3672;-1.0830;1.210
12.151000;-0.3196;0.2972;-0.9623;1.057
12.155000;-0.2287;0.2231;-0.8536;0.911
12.160000;-0.1604;0.1757;-0.7809;0.816
12.164000;-0.1264;0.1501;-0.7369;0.763
12.169000;-0.0883;0.1292;-0.6380;0.657
12.174000;-0.1272;0.1130;-0.6324;0.655
12.179000;-0.1930;0.0800;-0.5575;0.595
12.184000;-0.2541;0.0751;-0.5160;0.580
12.189000;-0.3033;0.0962;-0.4053;0.515
12.199000;-0.3884;0.1311;-0.3091;0.513
12.200000;-0.4134;0.2056;-0.2703;0.535
12.204000;-0.4334;0.2332;-0.2196;0.539
12.208000;-0.4963;0.2667;-0.1737;0.590
12.263000;-0.5803;0.2843;-0.1590;0.665
12.264000;-0.6547;0.3218;-0.1705;0.749
12.265000;-0.7072;0.3745;-0.1772;0.820
12.265000;-0.7167;0.4450;-0.1863;0.864
12.265000;-0.7261;0.4926;-0.2026;0.901
12.266000;-0.7570;0.5340;-0.2188;0.952
12.266000;-0.7303;0.5720;-0.2660;0.965
12.266000;-0.7392;0.5923;-0.3371;1.005
12.267000;-0.7144;0.5998;-0.3675;1.003
12.267000;-0.6892;0.6140;-0.3739;0.996
12.268000;-0.7019;0.6495;-0.3827;1.030
12.268000;-0.6565;0.6658;-0.2959;0.981
12.273000;-0.6396;0.6918;-0.2236;0.968
12.277000;-0.5985;0.7462;-0.0987;0.962
12.283000;-0.5908;0.7572;-0.0146;0.961
12.287000;-0.5490;0.7895;0.0598;0.963
12.292000;-0.5138;0.8020;0.1173;0.960
12.299000;-0.5356;0.8094;0.1629;0.984
12.302000;-0.5184;0.7757;0.1797;0.950
12.306000;-0.5144;0.7538;0.2299;0.941
12.354000;-0.5715;0.7100;0.2991;0.959
12.355000;-0.5796;0.6348;0.3324;0.922
12.356000;-0.6225;0.6049;0.3919;0.952
12.356000;-0.6742;0.5343;0.4251;0.960
12.356000;-0.7110;0.4493;0.4773;0.967
12.356000;-0.7688;0.3598;0.4792;0.975
12.356000;-0.8382;0.2946;0.4740;1.007
12.357000;-0.9242;0.2588;0.5070;1.085
12.357000;-1.0007;0.2404;0.5472;1.166
12.357000;-1.0371;0.2036;0.6351;1.233
12.360000;-1.0213;0.2037;0.7922;1.309
12.366000;-0.9179;0.2067;0.9658;1.348
12.371000;-0.7391;0.2311;1.0963;1.342
12.375000;-0.5450;0.2956;1.1645;1.319
12.381000;-0.3639;0.3686;1.2064;1.313
12.386000;-0.2380;0.4400;1.1240;1.230
12.390000;-0.1691;0.5023;0.9606;1.097
12.398000;-0.1254;0.4789;0.7041;0.861
12.400000;-0.1682;0.4372;0.4289;0.635
12.404000;-0.2469;0.3635;0.1898;0.479
12.409000;-0.3493;0.3275;-0.0490;0.481
12.414000;-0.3822;0.2371;-0.2279;0.504
12.453000;-0.3553;0.2456;-0.3229;0.539
12.454000;-0.3027;0.3131;-0.3486;0.558
12.454000;-0.2344;0.3677;-0.1497;0.461
12.455000;-0.1562;0.5053;-0.3574;0.638
12.455000;-0.0947;0.5464;-0.0391;0.556
12.456000;-0.0313;0.5963;-0.0343;0.598
12.456000;0.0100;0.5427;-0.0320;0.544
12.456000;0.0630;0.4889;-0.0297;0.494
12.458000;0.0616;0.3803;0.0083;0.385
12.463000;0.0278;0.2698;0.1178;0.296
12.468000;-0.0164;0.1694;0.3441;0.384
12.473000;-0.0969;0.0335;0.5725;0.582
12.479000;-0.1845;-0.1525;0.8124;0.847
12.483000;-0.2956;-0.4033;1.1140;1.221
12.490000;-0.4564;-0.6377;1.3460;1.558
12.493000;-0.5839;-0.8870;1.6566;1.968
12.498000;-0.7458;-1.1703;1.8927;2.347
12.503000;-0.8933;-1.4473;2.1501;2.741
12.508000;-0.9871;-1.6752;2.4431;3.122
12.516000;-0.9978;-1.8547;2.6379;3.375
12.517000;-0.9718;-1.9551;2.8301;3.574
12.524000;-0.8744;-2.0755;2.9480;3.710
12.527000;-0.7419;-2.1136;3.0300;3.768
12.574000;-0.6251;-2.0775;3.0259;3.723
12.576000;-0.4450;-2.0517;2.9550;3.625
12.577000;-0.2186;-1.9696;2.6881;3.340
12.577000;0.0121;-1.8294;2.3190;2.954
12.578000;0.2126;-1.6098;1.8428;2.456
12.578000;0.4054;-1.3278;1.3434;1.932
12.578000;0.5560;-1.0433;0.8854;1.477
12.578000;0.6676;-0.7587;0.3540;1.071
12.579000;0.6964;-0.4734;-0.1431;0.854
12.579000;0.6002;-0.2228;-0.6466;0.910
12.585000;0.5523;0.0109;-1.1350;1.262
12.586000;0.5099;0.2047;-1.5965;1.688
12.591000;0.4664;0.3788;-1.9975;2.086
12.599000;0.3957;0.5220;-2.4172;2.504
12.601000;0.3245;0.6738;-2.7384;2.839
12.605000;0.2262;0.7636;-2.9661;3.071
12.614000;0.1320;0.8209;-3.1553;3.263
12.615000;0.0817;0.8658;-3.2323;3.347
12.646000;0.0249;0.8416;-3.2161;3.324
12.646000;0.0420;0.7655;-3.0902;3.184
12.647000;-0.0038;0.6641;-2.8716;2.947
12.647000;-0.0011;0.5011;-2.5363;2.585
12.647000;-0.0074;0.3050;-2.1251;2.147
12.648000;0.0316;0.1276;-1.6643;1.669
12.649000;-0.0136;-0.0604;-1.1970;1.199
12.654000;0.0095;-0.2243;-0.8020;0.833
12.659000;-0.0064;-0.3528;-0.4624;0.582
12.664000;-0.0257;-0.4638;-0.1208;0.480
12.669000;-0.0507;-0.6008;0.1703;0.627
12.674000;-0.0672;-0.7170;0.3822;0.815
12.679000;-0.0868;-0.8007;0.5964;1.002
12.684000;-0.1193;-0.8649;0.7531;1.153
12.689000;-0.1146;-0.9333;0.8906;1.295
12.694000;-0.1255;-0.9445;0.9610;1.353
12.699000;-0.1495;-0.9248;1.0123;1.379
12.704000;-0.1722;-0.8700;1.0134;1.347
12.708000;-0.1861;-0.8565;0.9021;1.258
12.718000;-0.1915;-0.7841;0.7505;1.102
12.719000;-0.2022;-0.6669;0.5655;0.897
12.723000;-0.1898;-0.5596;0.3546;0.689
12.728000;-0.1445;-0.4402;0.1200;0.479
12.786000;-0.0786;-0.2892;-0.1048;0.318
12.788000;-0.0043;-0.1351;-0.3627;0.387
12.788000;0.0165;-0.0132;-0.6060;0.606
12.788000;0.0172;0.0697;-0.8466;0.850
12.788000;0.0124;0.2219;-1.0439;1.067
12.789000;0.0139;0.3119;-1.2314;1.270
12.789000;-0.0189;0.4837;-1.4187;1.499
12.789000;-0.0260;0.5437;-1.5317;1.626
12.789000;-0.0572;0.6122;-1.6230;1.736
12.790000;-0.1097;0.7082;-1.7190;1.862
12.790000;-0.1664;0.7605;-1.6691;1.842
12.791000;-0.1583;0.7976;-1.6408;1.831
12.793000;-0.1233;0.7767;-1.5720;1.758
12.797000;-0.1257;0.7456;-1.4004;1.592
12.801000;-0.0912;0.7277;-1.1096;1.330
12.805000;-0.1084;0.6796;-0.8932;1.128
12.811000;-0.0893;0.6459;-0.6173;0.898
12.816000;-0.0579;0.6070;-0.4254;0.743
12.820000;-0.0502;0.6029;-0.2457;0.653
12.825000;0.0145;0.5715;-0.1355;0.588
12.862000;0.0568;0.5292;-0.0493;0.535
12.863000;0.1030;0.5096;-0.0373;0.521
12.863000;0.1670;0.4767;-0.1258;0.521
12.863000;0.1842;0.4666;-0.2523;0.562
12.864000;0.2172;0.4823;-0.3716;0.646
12.864000;0.2445;0.5051;-0.4978;0.750
12.864000;0.2327;0.5352;-0.5929;0.832
12.866000;0.2127;0.5968;-0.6400;0.901
12.869000;0.1322;0.6493;-0.6489;0.927
12.874000;0.1512;0.6929;-0.7055;1.000
12.879000;0.1982;0.6510;-0.7238;0.993
12.884000;0.1930;0.6218;-0.5963;0.883
12.889000;0.1329;0.5951;-0.5263;0.806
12.894000;0.1319;0.5854;-0.5186;0.793
12.899000;0.1454;0.6020;-0.4033;0.739
12.904000;0.1449;0.6085;-0.3550;0.719
12.909000;0.2182;0.6262;-0.3689;0.759
12.953000;0.2486;0.6360;-0.3159;0.752
12.954000;0.2700;0.6329;-0.3394;0.767
12.954000;0.2727;0.5668;-0.4130;0.752
12.954000;0.2620;0.5552;-0.3910;0.728
12.955000;0.2739;0.5384;-0.4191;0.735
12.955000;0.1340;0.6119;-0.3684;0.727
12.955000;0.1629;0.7066;-0.3368;0.800
12.955000;0.2953;0.6260;-0.3961;0.798
12.956000;0.3240;0.5523;-0.3860;0.748
12.957000;0.3260;0.4928;-0.3664;0.695
12.964000;0.2577;0.5145;-0.3540;0.676
12.967000;0.2339;0.5173;-0.3224;0.653
12.972000;0.1663;0.5107;-0.2551;0.595
12.977000;0.1334;0.4950;-0.1448;0.533
12.982000;0.0391;0.4369;-0.0276;0.439
12.987000;-0.0330;0.3698;0.0633;0.377
12.993000;-0.1213;0.2796;0.1397;0.335
13.000000;-0.2407;0.1997;0.2494;0.400
13.002000;-0.3890;0.1184;0.3423;0.532
13.007000;-0.4657;0.0048;0.4709;0.662
13.061000;-0.5664;-0.0842;0.6543;0.870
13.062000;-0.5770;-0.1533;0.8734;1.058
13.062000;-0.5168;-0.2148;1.0993;1.234
13.062000;-0.4241;-0.2812;1.3464;1.439
13.062000;-0.2895;-0.2717;1.6315;1.679
13.063000;-0.1892;-0.2035;1.9426;1.962
13.063000;-0.1063;-0.1325;2.1385;2.145
13.063000;-0.0575;-0.1189;2.2529;2.257
13.063000;-0.0329;-0.1153;2.2669;2.270
13.064000;0.0232;-0.1244;2.1710;2.175
13.064000;0.0613;-0.1434;2.0011;2.007
13.066000;0.0626;-0.2079;1.7551;1.768
13.072000;0.1111;-0.2404;1.5452;1.568
13.075000;0.1519;-0.1997;1.3811;1.404
13.084000;0.1774;-0.1108;1.2626;1.280
13.085000;0.1564;0.0049;1.2543;1.264
13.090000;0.1026;0.0693;1.2029;1.209
13.095000;0.0304;0.1018;0.9031;0.909
13.100000;-0.1561;-0.0528;1.2225;1.234
13.104000;-0.3203;-0.2182;1.0541;1.123
13.109000;-0.5011;-0.4126;0.9742;1.171
13.116000;-0.6817;-0.6704;1.1070;1.463
13.119000;-0.8628;-0.8504;1.2373;1.732
13.124000;-1.0206;-1.0388;1.4150;2.031
13.129000;-1.1821;-1.1740;1.7263;2.399
13.172000;-1.2565;-1.2443;2.0180;2.683
13.173000;-1.3257;-1.2600;2.2734;2.918
13.173000;-1.3139;-1.2363;2.6313;3.190
13.173000;-1.2074;-1.1746;2.9504;3.397
13.174000;-1.0422;-1.0761;3.2356;3.566
13.174000;-0.7990;-0.9713;3.3962;3.622
13.174000;-0.6231;-0.9018;3.3654;3.539
13.175000;-0.4848;-0.8233;3.1913;3.331
13.175000;-0.3905;-0.8195;2.8336;2.975
13.178000;-0.2429;-0.8016;2.4071;2.549
13.183000;-0.0817;-0.7806;1.9430;2.095
13.188000;0.0865;-0.7651;1.5130;1.698
13.195000;0.2135;-0.7162;1.1244;1.350
13.200000;0.3233;-0.7016;0.7125;1.051
13.202000;0.3794;-0.7350;0.3513;0.899
13.207000;0.3479;-0.7001;0.0145;0.782
13.242000;0.3529;-0.7089;-0.1928;0.815
13.243000;0.3408;-0.7770;-0.3641;0.923
13.243000;0.3563;-0.7868;-0.4421;0.970
13.243000;0.3631;-0.7311;-0.4747;0.944
13.243000;0.3746;-0.7491;-0.4906;0.971
13.244000;0.2809;-0.6856;-0.5067;0.898
13.244000;0.1824;-0.6871;-0.4965;0.867
13.247000;0.1338;-0.7370;-0.5510;0.930
13.254000;0.0943;-0.7544;-0.6030;0.970
13.256000;0.0501;-0.7184;-0.6670;0.982
13.261000;0.0134;-0.6342;-0.7332;0.970
13.266000;0.0042;-0.5262;-0.8184;0.973
13.275000;0.0251;-0.4263;-0.8724;0.971
13.276000;0.0412;-0.3607;-0.9884;1.053
13.281000;0.0576;-0.3158;-1.0659;1.113
13.286000;0.1060;-0.2344;-1.2054;1.233
13.290000;0.1127;-0.1882;-1.3398;1.358
13.295000;0.1018;-0.0938;-1.4787;1.485
13.300000;0.1072;-0.0107;-1.6126;1.616
13.305000;0.1102;0.0375;-1.7176;1.722
13.310000;0.0748;0.0895;-1.8248;1.829
13.316000;0.1108;0.1284;-1.9582;1.965
13.320000;0.1676;0.1217;-2.0340;2.045
13.325000;0.1972;0.1154;-2.0500;2.063
13.329000;0.2564;0.1076;-2.0469;2.066
13.357000;0.3252;0.0456;-1.9793;2.006
13.358000;0.3623;0.0376;-1.8784;1.913
13.358000;0.4147;0.0571;-1.8111;1.859
13.359000;0.4582;0.0757;-1.7486;1.809
13.359000;0.5191;0.1145;-1.6720;1.754
13.359000;0.5685;0.1591;-1.6264;1.730
13.366000;0.5969;0.1833;-1.6216;1.738
13.369000;0.6001;0.1989;-1.6024;1.723
13.374000;0.6190;0.1798;-1.5904;1.716
13.379000;0.5970;0.1903;-1.5497;1.672
13.384000;0.6059;0.1967;-1.4948;1.625
13.389000;0.5988;0.2704;-1.4041;1.550
13.393000;0.5660;0.3465;-1.3446;1.499
13.401000;0.4985;0.3721;-1.2803;1.423
13.405000;0.3894;0.3784;-1.2186;1.334
13.408000;0.2435;0.4323;-1.1665;1.268
13.413000;0.1275;0.5003;-1.1456;1.257
13.460000;0.0005;0.5561;-1.1104;1.242
13.461000;-0.1089;0.6119;-1.1135;1.275
13.461000;-0.2745;0.6345;-1.1166;1.313
13.462000;-0.3744;0.6431;-1.1795;1.395
13.462000;-0.4825;0.6426;-1.1707;1.420
13.462000;-0.5465;0.6217;-1.2051;1.462
13.462000;-0.5400;0.6070;-1.1582;1.415
13.463000;-0.5447;0.5124;-1.0900;1.322
13.463000;-0.5370;0.4411;-0.9814;1.203
13.463000;-0.5580;0.3215;-0.8156;1.039
13.468000;-0.5580;0.2133;-0.6572;0.888
13.475000;-0.5328;0.1738;-0.3986;0.688
13.477000;-0.5114;0.1640;-0.1786;0.566
13.483000;-0.4896;0.1618;-0.0447;0.518
13.487000;-0.4193;0.1451;0.0867;0.452
13.491000;-0.3291;0.0897;0.2133;0.402
13.497000;-0.2208;0.0572;0.3159;0.390
13.502000;-0.1301;-0.0128;0.3301;0.355
13.507000;-0.0398;-0.0513;0.3396;0.346
13.512000;0.0289;-0.0466;0.3158;0.320
13.519000;0.0310;-0.0345;0.2179;0.223
13.523000;0.0600;0.0038;0.1322;0.145
13.526000;0.0661;0.0542;0.0370;0.093
13.531000;0.0641;0.1599;-0.0652;0.184
13.590000;0.0684;0.2132;-0.2175;0.312
13.591000;0.0477;0.2479;-0.3170;0.405
13.592000;0.0547;0.3073;-0.4523;0.550
13.592000;0.0317;0.3965;-0.5636;0.690
13.592000;-0.0166;0.4919;-0.7201;0.872
13.592000;-0.1017;0.5653;-0.8837;1.054
13.593000;-0.1521;0.6649;-0.9539;1.173
13.593000;-0.1724;0.7574;-1.0026;1.268
13.593000;-0.1583;0.7953;-1.0896;1.358
13.593000;-0.1331;0.8338;-1.1216;1.404
13.593000;-0.1664;0.8251;-1.1823;1.451
13.594000;-0.1768;0.7933;-1.1738;1.428
13.594000;-0.2141;0.7701;-1.1582;1.407
13.600000;-0.2019;0.7672;-1.1022;1.358
13.604000;-0.2407;0.7297;-0.9579;1.228
13.609000;-0.2612;0.7269;-0.8402;1.141
13.614000;-0.2782;0.6796;-0.6941;1.011
13.619000;-0.2846;0.6451;-0.5435;0.890
13.624000;-0.3621;0.5635;-0.4863;0.828
13.629000;-0.3672;0.4875;-0.3885;0.724
13.675000;-0.4203;0.3957;-0.2551;0.631
13.676000;-0.4332;0.2836;-0.1003;0.527
13.676000;-0.4540;0.2155;0.0257;0.503
13.676000;-0.4755;0.1055;0.1706;0.516
13.676000;-0.6148;0.1633;0.3130;0.709
13.677000;-0.6520;0.1376;0.3932;0.774
13.677000;-0.7048;0.1889;0.6095;0.951
13.677000;-0.6275;0.2743;0.8949;1.127
13.677000;-0.5975;0.3980;1.1608;1.365
13.678000;-0.5963;0.4996;1.3931;1.596
13.683000;-0.5928;0.6290;1.5536;1.778
13.688000;-0.5527;0.6803;1.7140;1.925
13.693000;-0.5566;0.6674;1.6759;1.888
13.697000;-0.5628;0.6071;1.4563;1.675
13.702000;-0.5505;0.4970;1.2131;1.422
13.707000;-0.4637;0.3523;0.9343;1.101
13.712000;-0.4283;0.3002;0.6749;0.854
13.754000;-0.4372;0.2656;0.5280;0.735
13.754000;-0.4974;0.1632;0.4791;0.710
13.754000;-0.5213;0.1399;0.5806;0.793
13.755000;-0.5428;0.0622;0.6939;0.883
13.755000;-0.5755;-0.0938;0.8237;1.009
13.755000;-0.6574;-0.2769;1.1372;1.342
13.755000;-0.6773;-0.3867;1.4216;1.621
13.755000;-0.7075;-0.4880;1.7032;1.908
13.756000;-0.6235;-0.5601;2.0155;2.183
13.761000;-0.5021;-0.8400;2.4900;2.675
13.766000;-0.3437;-1.0393;2.7967;3.003
13.770000;-0.2870;-1.2000;2.8545;3.110
13.776000;-0.2862;-1.3833;3.2327;3.528
13.780000;-0.2429;-1.5539;3.3476;3.699
13.785000;-0.2082;-1.5911;3.3980;3.758
13.790000;-0.1725;-1.6032;3.4532;3.811
13.795000;-0.1596;-1.5285;3.4105;3.741
13.803000;-0.1912;-1.4247;3.2651;3.568
13.806000;-0.1671;-1.2585;2.9790;3.238
13.810000;-0.0967;-1.1184;2.7053;2.929
13.814000;-0.0543;-0.9994;2.2623;2.474
13.858000;-0.0517;-0.8246;1.7769;1.960
13.859000;-0.0504;-0.5883;1.1917;1.330
13.859000;-0.1003;-0.3378;0.6790;0.765
13.859000;-0.1079;-0.0721;0.1934;0.233
13.860000;-0.1352;0.1326;-0.2702;0.330
13.860000;-0.1392;0.2896;-0.6949;0.766
13.860000;-0.1627;0.4476;-1.0975;1.196
13.860000;-0.1816;0.5669;-1.4495;1.567
13.861000;-0.2035;0.6480;-1.7652;1.891
13.864000;-0.1851;0.6632;-1.9994;2.115
13.869000;-0.1788;0.6822;-2.1976;2.308
13.875000;-0.2180;0.6675;-2.3597;2.462
13.879000;-0.2404;0.6146;-2.3808;2.471
13.884000;-0.2053;0.5574;-2.2945;2.370
13.889000;-0.1250;0.4479;-2.0698;2.121
13.893000;-0.0045;0.3522;-1.7785;1.813
13.898000;0.1155;0.2292;-1.4350;1.458
13.904000;0.2037;0.0897;-1.1063;1.128
13.908000;0.2939;-0.0358;-0.7636;0.819
13.913000;0.3357;-0.1773;-0.4906;0.620
13.958000;0.4062;-0.2943;-0.2585;0.564
13.959000;0.4603;-0.4361;-0.0409;0.635
13.959000;0.5565;-0.5597;0.1072;0.797
13.959000;0.6496;-0.7117;0.2552;0.997
13.959000;0.6969;-0.8108;0.3672;1.130
13.960000;0.7704;-0.9054;0.4361;1.266
13.960000;0.8077;-1.0076;0.5312;1.396
13.960000;0.8802;-1.0937;0.5474;1.507
13.960000;0.8651;-1.1465;0.5038;1.522
13.961000;0.8310;-1.1895;0.4579;1.522
13.966000;0.8136;-1.2344;0.3690;1.524
13.971000;0.7405;-1.2521;0.2922;1.484
13.976000;0.6613;-1.2422;0.2298;1.426
13.981000;0.5731;-1.1565;0.1746;1.303
13.986000;0.5312;-1.1217;0.1386;1.249
13.991000;0.4822;-1.0681;0.1026;1.176
13.996000;0.4145;-1.0009;0.0929;1.087
14.005000;0.3902;-0.9060;0.0617;0.988
14.007000;0.3595;-0.8004;0.0377;0.878
14.015000;0.3059;-0.6822;0.0113;0.748
14.072000;0.2774;-0.5683;-0.1274;0.645
14.072000;0.2125;-0.4919;-0.2325;0.584
14.072000;0.1810;-0.4054;-0.3184;0.546
14.073000;0.1449;-0.3039;-0.3468;0.483
14.073000;0.0754;-0.1780;-0.4397;0.480
14.073000;-0.0055;-0.0326;-0.5157;0.517
14.073000;0.0002;0.0608;-0.6514;0.654
14.074000;-0.0217;0.1551;-0.7869;0.802
14.074000;-0.0090;0.2603;-0.9820;1.016
14.074000;-0.0501;0.3601;-1.1935;1.248
14.075000;-0.0420;0.4195;-1.4047;1.467
14.075000;-0.0224;0.5086;-1.5702;1.651
14.075000;-0.0202;0.5372;-1.6518;1.737
14.080000;-0.0307;0.5128;-1.6688;1.746
14.085000;-0.0328;0.4885;-1.6930;1.762
14.090000;-0.0147;0.4715;-1.6310;1.698
14.094000;0.0465;0.4335;-1.5334;1.594
14.098000;0.0833;0.4032;-1.3976;1.457
14.105000;0.1338;0.3567;-1.2070;1.266
14.109000;0.1643;0.3226;-1.0215;1.084
14.113000;0.1696;0.2785;-0.7909;0.855
14.155000;0.1374;0.2552;-0.5939;0.661
14.157000;0.1205;0.2498;-0.4570;0.535
14.157000;0.1287;0.2237;-0.3131;0.406
14.157000;0.1337;0.1978;-0.1980;0.310
14.157000;0.1070;0.1740;-0.1476;0.252
14.158000;0.0966;0.2071;-0.0949;0.247
14.158000;0.0886;0.2324;-0.0637;0.257
14.158000;0.1235;0.2757;-0.0374;0.304
14.158000;0.1683;0.2772;-0.0421;0.327
14.163000;0.1922;0.2439;-0.0468;0.314
14.168000;0.2119;0.2547;-0.1280;0.355
14.173000;0.2035;0.2787;-0.1780;0.388
14.177000;0.1980;0.2969;-0.2280;0.423
14.182000;0.1735;0.3406;-0.2970;0.484
14.187000;0.2037;0.3909;-0.3659;0.573
14.193000;0.2238;0.4434;-0.4348;0.660
14.197000;0.2189;0.4816;-0.5155;0.739
14.203000;0.2443;0.5176;-0.6176;0.842
14.207000;0.2518;0.5494;-0.6742;0.905
14.211000;0.2561;0.5533;-0.6925;0.923
14.245000;0.2905;0.5892;-0.6916;0.954
14.246000;0.3313;0.6094;-0.6453;0.947
14.246000;0.3881;0.6137;-0.6038;0.944
14.246000;0.4115;0.6258;-0.5313;0.918
14.247000;0.4636;0.6380;-0.4828;0.925
14.247000;0.4539;0.6431;-0.4416;0.902
14.247000;0.4786;0.6435;-0.3788;0.887
14.253000;0.4614;0.5983;-0.3520;0.833
14.256000;0.4549;0.5770;-0.2822;0.787
14.261000;0.4232;0.5556;-0.2148;0.731
14.266000;0.4091;0.5321;-0.0855;0.677
14.272000;0.3576;0.5061;0.0223;0.620
14.275000;0.2709;0.4635;0.1346;0.553
14.281000;0.2398;0.4567;0.2635;0.579
14.288000;0.1903;0.4045;0.4353;0.624
14.291000;0.1439;0.3590;0.5639;0.684
14.296000;0.1601;0.2437;0.7472;0.802
14.300000;0.1865;0.2115;0.9423;0.984
14.306000;0.2398;0.1425;1.0821;1.118
14.310000;0.3172;0.0918;1.2242;1.268
14.315000;0.3374;0.0469;1.3087;1.352
14.358000;0.3793;-0.0040;1.3524;1.405
14.360000;0.3711;-0.0061;1.3507;1.401
14.360000;0.3750;-0.0262;1.3442;1.396
14.360000;0.3765;-0.0091;1.3663;1.417
14.361000;0.4230;0.0431;1.3598;1.425
14.361000;0.4710;0.0898;1.3795;1.460
14.361000;0.4704;0.2318;1.4159;1.510
14.361000;0.4235;0.3521;1.4739;1.573
14.362000;0.3997;0.4767;1.5461;1.667
14.364000;0.3799;0.6223;1.5704;1.731
14.368000;0.3695;0.7409;1.5229;1.733
14.374000;0.3449;0.7894;1.3680;1.617
14.378000;0.3016;0.7731;1.1488;1.417
14.383000;0.2070;0.6951;0.9275;1.177
14.388000;0.0590;0.5251;0.6849;0.865
14.393000;-0.0963;0.3791;0.4881;0.625
14.398000;-0.2776;0.1883;0.3106;0.457
14.405000;-0.4634;-0.0179;0.2696;0.536
14.408000;-0.6707;-0.2695;0.3171;0.789
14.415000;-0.8065;-0.5425;0.5151;1.100
14.458000;-0.9176;-0.8388;0.8635;1.514
14.460000;-0.9267;-1.1160;1.3263;1.966
14.460000;-0.9067;-1.3555;1.8722;2.483
14.460000;-0.8234;-1.5280;2.0591;2.693
14.461000;-0.7705;-1.7201;2.6879;3.283
14.461000;-0.6532;-1.8884;2.9790;3.587
14.461000;-0.4716;-1.9528;3.1502;3.736
14.462000;-0.2686;-1.9582;3.2997;3.846
14.462000;-0.0553;-1.8940;3.2984;3.804
14.463000;0.0451;-1.7661;3.1249;3.590
14.466000;0.0765;-1.5996;2.8081;3.233
14.472000;0.1194;-1.3660;2.3983;2.763
14.476000;0.1099;-1.0651;1.9267;2.204
14.481000;0.0846;-0.7514;1.3862;1.579
14.486000;0.0629;-0.4839;0.8320;0.965
14.491000;0.0453;-0.1898;0.3597;0.409
14.496000;0.0430;0.0078;-0.0571;0.072
14.506000;0.0588;0.1628;-0.5474;0.574
14.507000;0.0332;0.3380;-0.9725;1.030
14.511000;-0.0168;0.4896;-1.3229;1.411
14.515000;-0.0220;0.6065;-1.5987;1.710
14.567000;-0.0133;0.6990;-1.8358;1.964
14.568000;-0.0769;0.7249;-2.0368;2.163
14.569000;-0.1861;0.6853;-2.1609;2.275
14.569000;-0.3412;0.6044;-2.2252;2.331
14.570000;-0.5088;0.5137;-2.1723;2.289
14.571000;-0.7535;0.4183;-2.0310;2.206
14.571000;-0.9610;0.3328;-1.7561;2.029
14.572000;-1.1413;0.2256;-1.4194;1.835
14.572000;-1.2737;0.1416;-0.9874;1.618
14.572000;-1.3710;0.0227;-0.5823;1.490
14.572000;-1.4053;-0.1104;-0.2350;1.429
14.574000;-1.4031;-0.2800;0.0092;1.431
14.579000;-1.3049;-0.4414;0.2172;1.395
14.585000;-1.1846;-0.6571;0.3916;1.410
14.590000;-1.0280;-0.7938;0.5444;1.408
14.594000;-0.8368;-0.8930;0.6683;1.394
14.599000;-0.6730;-0.9388;0.7968;1.403
14.603000;-0.5554;-0.9390;0.9013;1.415
14.609000;-0.4144;-0.9350;0.9530;1.398
14.614000;-0.2857;-0.9367;0.9162;1.341
14.623000;-0.1620;-0.9111;0.8412;1.251
14.625000;-0.0407;-0.8917;0.6682;1.115
14.629000;0.0615;-0.8545;0.4379;0.962
14.633000;0.1563;-0.7947;0.1745;0.829
14.686000;0.1963;-0.6855;-0.1461;0.728
14.688000;0.1956;-0.5508;-0.4854;0.760
14.689000;0.1452;-0.3872;-0.8601;0.954
14.689000;0.0763;-0.2327;-1.2105;1.235
14.689000;-0.0085;-0.0549;-1.5030;1.504
14.690000;-0.0644;0.0868;-1.7426;1.746
14.690000;-0.1413;0.1836;-1.9317;1.946
14.690000;-0.1963;0.2981;-2.0655;2.096
14.690000;-0.2675;0.3735;-2.1656;2.214
14.691000;-0.2856;0.5006;-2.1581;2.234
14.691000;-0.2919;0.6344;-2.1482;2.259
14.692000;-0.3083;0.7627;-2.1263;2.280
14.696000;-0.3726;0.8473;-2.0781;2.275
14.702000;-0.4059;0.9573;-2.0133;2.266
14.706000;-0.4823;0.9991;-1.9556;2.248
14.715000;-0.4994;1.0635;-1.9507;2.277
14.716000;-0.4904;1.0837;-1.9266;2.264
14.722000;-0.4911;1.0885;-1.9479;2.285
14.726000;-0.4940;1.0393;-1.9740;2.285
14.735000;-0.4750;0.9800;-1.9451;2.229
14.775000;-0.3956;0.8798;-1.8875;2.120
14.776000;-0.3445;0.8174;-1.7536;1.965
14.776000;-0.3098;0.7403;-1.6247;1.812
14.777000;-0.2341;0.6747;-1.4409;1.608
14.777000;-0.1871;0.5918;-1.2263;1.374
14.777000;-0.1644;0.5248;-1.0215;1.160
14.777000;-0.1346;0.4591;-0.8384;0.965
14.778000;-0.1004;0.3870;-0.6699;0.780
14.778000;-0.0615;0.3249;-0.5111;0.609
14.780000;-0.0058;0.2654;-0.3597;0.447
14.784000;0.0119;0.2058;-0.2132;0.297
14.790000;0.0393;0.1624;-0.0979;0.194
14.795000;0.0046;0.1400;0.0411;0.146
14.800000;0.0323;0.1216;0.1249;0.177
14.805000;0.0196;0.1213;0.2350;0.265
14.809000;0.0406;0.1126;0.3091;0.331
14.814000;0.0494;0.1215;0.3806;0.403
14.849000;0.0507;0.1433;0.4473;0.472
14.851000;0.0036;0.1539;0.4255;0.452
14.851000;-0.0558;0.1841;0.3869;0.432
14.851000;-0.0943;0.2151;0.3652;0.434
14.851000;-0.1527;0.2588;0.2837;0.413
14.851000;-0.2236;0.2964;0.2238;0.434
14.852000;-0.3047;0.3757;0.1186;0.498
14.857000;-0.3479;0.4467;0.0638;0.570
14.858000;-0.3815;0.4924;-0.0364;0.624
14.863000;-0.4223;0.5156;-0.1246;0.678
14.868000;-0.4536;0.5762;-0.2126;0.764
14.873000;-0.4775;0.6600;-0.3101;0.872
14.878000;-0.4819;0.7123;-0.3167;0.917
14.883000;-0.4719;0.8050;-0.3496;0.996
14.888000;-0.4738;0.8734;-0.3155;1.043
14.893000;-0.4086;0.9201;-0.2814;1.045
14.897000;-0.3505;0.9831;-0.2497;1.073
14.908000;-0.3118;1.0073;-0.2588;1.086
14.909000;-0.2417;1.0620;-0.2295;1.113
14.912000;-0.1807;1.0827;-0.2219;1.120
14.917000;-0.1522;1.0909;-0.2190;1.123
14.976000;-0.1036;1.1201;-0.2115;1.145
14.977000;-0.0848;1.1200;-0.1801;1.138
14.978000;-0.0860;1.1575;-0.2229;1.182
14.978000;-0.0829;1.1684;-0.1677;1.183
14.978000;-0.1305;1.1433;-0.1270;1.158
14.978000;-0.1382;1.1184;-0.0673;1.129
14.979000;-0.2209;1.0676;0.0377;1.091
14.979000;-0.2881;0.9984;0.1019;1.044
14.980000;-0.3565;0.9510;0.2281;1.041
14.980000;-0.4289;0.8421;0.3733;1.016
14.980000;-0.5508;0.7528;0.4800;1.049
14.980000;-0.6652;0.6834;0.6224;1.139
14.981000;-0.6981;0.5907;0.8030;1.217
14.987000;-0.7338;0.5921;0.9188;1.316
14.992000;-0.6884;0.5772;1.0990;1.419
14.996000;-0.6745;0.5893;1.2766;1.559
15.001000;-0.6467;0.5753;1.4014;1.647
15.006000;-0.6525;0.5543;1.4902;1.719
15.011000;-0.7440;0.4856;1.5479;1.785
15.015000;-0.8465;0.3813;1.6007;1.850
15.024000;-0.9739;0.2657;1.6605;1.943
15.025000;-1.0137;0.1223;1.7896;2.060
15.030000;-1.0211;0.0421;1.9328;2.186
15.035000;-0.9752;-0.0324;2.1092;2.324
15.112000;-0.8786;-0.1037;2.3070;2.471
15.115000;-0.8010;-0.1649;2.4328;2.567
15.115000;-0.7185;-0.2736;2.5513;2.665
15.116000;-0.6356;-0.4160;2.7437;2.847
15.116000;-0.4948;-0.4873;2.8762;2.959
15.116000;-0.2993;-0.6147;2.9392;3.018
15.117000;-0.1185;-0.7509;2.9712;3.067
15.117000;0.0858;-0.8270;2.8957;3.013
15.118000;0.2729;-0.8982;2.7725;2.927
15.118000;0.3735;-0.9671;2.4799;2.688
15.118000;0.3670;-1.0861;2.1590;2.445
15.118000;0.2465;-1.1490;1.7646;2.120
15.119000;0.1631;-1.1794;1.6192;2.010
15.119000;0.0637;-1.1667;1.3522;1.787
15.119000;-0.0782;-1.1033;1.0712;1.540
15.120000;-0.2008;-1.0056;1.0846;1.493
15.120000;-0.3593;-0.8827;1.0764;1.438
15.123000;-0.4972;-0.7374;1.0635;1.386
15.128000;-0.5891;-0.6342;1.0913;1.393
15.135000;-0.6451;-0.5109;1.0784;1.357
15.140000;-0.6344;-0.4229;1.0105;1.266
15.142000;-0.5376;-0.3588;0.8950;1.104
15.147000;-0.4458;-0.2899;0.6887;0.870
15.152000;-0.3253;-0.3097;0.4110;0.609
15.188000;-0.1897;-0.3076;0.1194;0.381
15.188000;-0.0963;-0.3338;-0.1552;0.381
15.188000;-0.0210;-0.3827;-0.4487;0.590
15.189000;0.0325;-0.4232;-0.6653;0.789
15.189000;0.0786;-0.4308;-0.8650;0.969
15.190000;0.1031;-0.4388;-0.9546;1.056
15.190000;0.1323;-0.4404;-1.0154;1.115
15.193000;0.1664;-0.4424;-1.0739;1.173
15.196000;0.1793;-0.4667;-1.0750;1.186
15.201000;0.2214;-0.4800;-0.9973;1.129
15.207000;0.2879;-0.4993;-0.9819;1.139
15.211000;0.2660;-0.5300;-0.9283;1.102
15.216000;0.2802;-0.5360;-0.9178;1.099
15.223000;0.3187;-0.5631;-0.8714;1.085
15.225000;0.3097;-0.5662;-0.8275;1.049
15.230000;0.3108;-0.5909;-0.7980;1.040
15.235000;0.3532;-0.5846;-0.7638;1.025
15.263000;0.3964;-0.5977;-0.7080;1.008
15.263000;0.4475;-0.6233;-0.7168;1.050
15.264000;0.4848;-0.6564;-0.7232;1.090
15.264000;0.5252;-0.6660;-0.7392;1.125
15.264000;0.5355;-0.7166;-0.7479;1.166
15.264000;0.5421;-0.7792;-0.7446;1.206
15.270000;0.5205;-0.8273;-0.7031;1.204
15.274000;0.4731;-0.8654;-0.6282;1.169
15.279000;0.4399;-0.8890;-0.5199;1.120
15.284000;0.3463;-0.8790;-0.4213;1.034
15.290000;0.2419;-0.8425;-0.3659;0.950
15.295000;0.1525;-0.8181;-0.3153;0.890
15.299000;0.0657;-0.7890;-0.3007;0.847
15.307000;0.0099;-0.7100;-0.3841;0.807
15.309000;-0.0746;-0.6931;-0.4650;0.838
15.313000;-0.1537;-0.6572;-0.5626;0.879
15.319000;-0.1460;-0.6213;-0.6171;0.888
15.362000;-0.1542;-0.5522;-0.7264;0.925
15.363000;-0.1108;-0.4834;-0.8117;0.951
15.363000;-0.0512;-0.4129;-0.9041;0.995
15.363000;0.0131;-0.3477;-1.0059;1.064
15.363000;0.0966;-0.2715;-1.1433;1.179
15.364000;0.1876;-0.2223;-1.2591;1.292
15.364000;0.2674;-0.1548;-1.4057;1.439
15.364000;0.3380;-0.0994;-1.5307;1.571
15.364000;0.3994;-0.0180;-1.6530;1.701
15.368000;0.4112;0.0278;-1.7251;1.774
15.375000;0.4738;0.0977;-1.7779;1.843
15.377000;0.4718;0.1919;-1.7925;1.863
15.382000;0.4989;0.2459;-1.8476;1.930
15.388000;0.4691;0.3412;-1.8740;1.962
15.392000;0.4282;0.3343;-1.8933;1.970
15.397000;0.3810;0.3426;-1.8169;1.888
15.402000;0.3085;0.3569;-1.7718;1.833
15.407000;0.3206;0.3436;-1.6741;1.739
15.412000;0.2856;0.3576;-1.5503;1.616
15.417000;0.2081;0.3248;-1.4290;1.480
15.426000;0.1049;0.2975;-1.2817;1.320
15.430000;0.0167;0.3164;-1.1154;1.160
15.432000;-0.0545;0.3404;-0.9493;1.010
15.437000;-0.1327;0.3601;-0.8025;0.890
15.494000;-0.0964;0.3392;-0.6488;0.738
15.495000;-0.1037;0.3256;-0.5382;0.638
15.495000;-0.1163;0.2856;-0.4278;0.527
15.495000;-0.0962;0.2672;-0.3103;0.421
15.496000;-0.1487;0.2603;-0.2168;0.370
15.496000;-0.1569;0.2793;-0.1641;0.360
15.496000;-0.1491;0.3215;-0.1019;0.369
15.496000;-0.1109;0.3077;-0.0899;0.339
15.497000;-0.1067;0.3216;-0.1137;0.357
15.497000;-0.0690;0.3200;-0.1566;0.363
15.497000;-0.0099;0.2794;-0.1971;0.342
15.497000;0.0302;0.2928;-0.2422;0.381
15.500000;0.0512;0.3007;-0.3112;0.436
15.505000;0.0939;0.2961;-0.3371;0.458
15.510000;0.1203;0.3222;-0.3725;0.507
15.514000;0.1490;0.3720;-0.3577;0.537
