time;ax;ay;az;aT
0.003000;-0.4763;0.0731;-0.3743;0.610
0.004000;-0.6647;0.1713;-0.3472;0.769
0.007000;-0.8297;0.2020;-0.2753;0.897
0.011000;-0.8991;0.2493;-0.0498;0.934
0.016000;-0.9601;0.2722;0.2211;1.022
0.024000;-0.8927;0.2513;0.4779;1.043
0.025000;-0.7365;0.2003;0.7277;1.055
0.031000;-0.4974;0.1044;0.8426;0.984
0.035000;-0.2667;0.0202;0.8664;0.907
0.040000;-0.0586;-0.0976;0.7833;0.792
0.045000;0.1649;-0.1888;0.6557;0.702
0.050000;0.3469;-0.2423;0.5174;0.668
0.057000;0.5187;-0.2460;0.3873;0.693
0.060000;0.6430;-0.2238;0.2583;0.728
0.065000;0.7040;-0.1832;0.1185;0.737
0.071000;0.6859;-0.1409;0.0249;0.701
0.075000;0.6272;-0.0350;-0.0870;0.634
0.080000;0.5386;0.0345;-0.1813;0.569
0.085000;0.4680;0.1509;-0.2583;0.555
0.090000;0.3915;0.2214;-0.3181;0.551
0.095000;0.3687;0.2584;-0.3157;0.550
0.099000;0.2994;0.2978;-0.3370;0.540
0.104000;0.2932;0.2948;-0.2514;0.486
0.110000;0.2973;0.2687;-0.1830;0.441
0.114000;0.3660;0.2620;-0.0795;0.457
0.119000;0.4319;0.2126;0.0280;0.482
0.124000;0.4499;0.1612;0.0635;0.482
0.132000;0.5057;0.1124;0.1224;0.532
0.134000;0.5636;0.0589;0.1405;0.584
0.139000;0.5617;0.0434;0.1633;0.587
0.144000;0.5531;-0.0031;0.2144;0.593
0.151000;0.5402;-0.0425;0.2461;0.595
0.162000;0.5017;-0.0630;0.2729;0.575
0.163000;0.4427;-0.1098;0.3019;0.547
0.163000;0.3655;-0.1162;0.3664;0.530
0.171000;0.2751;-0.1204;0.3995;0.500
0.175000;0.2024;-0.0915;0.4396;0.492
0.180000;0.0972;-0.1059;0.4984;0.519
0.184000;0.0044;-0.1088;0.5354;0.546
0.188000;-0.0477;-0.0904;0.5319;0.542
0.193000;-0.1233;-0.0726;0.5449;0.563
0.198000;-0.1703;-0.0625;0.5176;0.548
0.202000;-0.1675;-0.0384;0.4880;0.517
0.207000;-0.1629;-0.0311;0.4254;0.457
0.212000;-0.1800;-0.0408;0.3846;0.427
0.217000;-0.1709;-0.0480;0.3464;0.389
0.222000;-0.1975;-0.0597;0.3323;0.391
0.231000;-0.2048;-0.0714;0.3420;0.405
0.232000;-0.2047;-0.0473;0.3209;0.384
0.238000;-0.2045;-0.0259;0.3307;0.390
0.242000;-0.2613;-0.0333;0.3429;0.432
0.246000;-0.2605;-0.0314;0.3598;0.445
0.252000;-0.2953;-0.0253;0.3219;0.438
0.256000;-0.2608;-0.0056;0.3104;0.405
0.262000;-0.2599;-0.0031;0.2610;0.368
0.266000;-0.2471;-0.0344;0.1857;0.311
0.273000;-0.1888;-0.0090;0.0942;0.211
0.276000;-0.1473;-0.0031;0.0104;0.148
0.281000;-0.1175;-0.0071;-0.1015;0.155
0.286000;-0.0948;0.0172;-0.1365;0.167
0.291000;-0.0745;0.0247;-0.0739;0.108
0.295000;-0.0922;0.0610;-0.2423;0.266
0.301000;-0.0765;0.0947;-0.2361;0.266
0.305000;-0.0682;0.1216;-0.2989;0.330
0.311000;-0.0530;0.1530;-0.3637;0.398
0.315000;-0.0549;0.1539;-0.3854;0.419
0.320000;-0.0453;0.1813;-0.4307;0.470
0.325000;-0.0217;0.1951;-0.4640;0.504
0.330000;0.0016;0.2022;-0.4542;0.497
0.334000;0.0224;0.2003;-0.4230;0.469
0.340000;0.0528;0.1750;-0.4254;0.463
0.345000;0.0711;0.1455;-0.3825;0.415
0.350000;0.0799;0.1401;-0.3661;0.400
0.356000;0.0936;0.1445;-0.3331;0.375
0.361000;0.0548;0.1346;-0.3455;0.375
0.364000;0.0142;0.0799;-0.3127;0.323
0.369000;0.0216;0.0780;-0.2729;0.285
0.375000;0.0220;0.0523;-0.2214;0.229
0.379000;0.0247;0.0436;-0.2035;0.210
0.384000;0.0321;0.0040;-0.1833;0.186
0.389000;0.0584;-0.0379;-0.1608;0.175
0.394000;0.0963;-0.0702;-0.1576;0.198
0.399000;0.1293;-0.0831;-0.1496;0.214
0.404000;0.1569;-0.0887;-0.1678;0.246
0.412000;0.1509;-0.0797;-0.1740;0.244
0.413000;0.1638;-0.0944;-0.1564;0.245
0.418000;0.1336;-0.0994;-0.1698;0.238
0.423000;0.1036;-0.0925;-0.1642;0.215
0.429000;0.0712;-0.0661;-0.1205;0.155
0.432000;0.0484;-0.0279;-0.1270;0.139
0.438000;0.0377;-0.0181;-0.0930;0.102
0.442000;0.0221;-0.0392;-0.0568;0.072
0.447000;0.0232;-0.0578;-0.0541;0.082
0.452000;-0.0283;-0.0120;-0.0371;0.048
0.458000;-0.0463;-0.0236;-0.0560;0.076
0.462000;-0.0833;-0.0041;-0.0557;0.100
0.467000;-0.1274;0.0202;-0.0911;0.158
0.473000;-0.1235;0.0161;-0.0907;0.154
0.477000;-0.1104;-0.0187;-0.0474;0.122
0.481000;-0.0615;-0.0341;-0.0257;0.075
0.489000;-0.0581;-0.0371;0.0125;0.070
0.491000;-0.0285;-0.0612;0.0551;0.087
0.496000;0.0127;-0.0851;0.0831;0.120
0.502000;0.0487;-0.0803;0.1038;0.140
0.507000;0.0839;-0.0829;0.1575;0.197
0.512000;0.1089;-0.0998;0.1491;0.210
0.516000;0.0977;-0.0861;0.1549;0.202
0.522000;0.1241;-0.0372;0.1227;0.178
0.526000;0.1072;-0.0529;0.0600;0.134
0.530000;0.0733;0.0073;0.0452;0.086
0.536000;0.0418;0.0124;0.0163;0.047
0.541000;-0.0060;0.0508;0.0232;0.056
0.546000;-0.0132;0.0724;0.0301;0.080
0.550000;-0.0510;0.1226;0.0369;0.138
0.557000;-0.0599;0.1675;0.0461;0.184
0.562000;-0.0901;0.1574;0.0717;0.195
0.565000;-0.1150;0.1685;0.0829;0.220
0.572000;-0.1231;0.1510;0.1083;0.223
0.575000;-0.1191;0.1526;0.1359;0.236
0.580000;-0.0962;0.1400;0.1798;0.247
0.585000;-0.0736;0.1250;0.2162;0.260
0.590000;-0.0254;0.1314;0.2523;0.286
0.595000;0.0270;0.0782;0.3119;0.323
0.599000;0.0479;0.0417;0.3092;0.316
0.606000;0.1113;0.0078;0.3161;0.335
0.611000;0.1147;0.0000;0.3134;0.334
0.614000;0.1156;-0.0482;0.3179;0.342
0.619000;0.1119;-0.0654;0.3318;0.356
0.624000;0.1012;-0.0615;0.3408;0.361
0.629000;0.0625;-0.0606;0.3285;0.340
0.634000;0.0103;-0.0742;0.3424;0.350
0.639000;-0.0291;-0.0551;0.2968;0.303
0.645000;-0.0984;-0.0438;0.2540;0.276
0.652000;-0.1336;-0.0378;0.2519;0.288
0.654000;-0.1730;-0.0440;0.2308;0.292
0.659000;-0.1621;-0.0218;0.2147;0.270
0.663000;-0.1892;-0.0168;0.1631;0.250
0.669000;-0.1643;0.0214;0.1523;0.225
0.674000;-0.1753;0.0119;0.1131;0.209
0.679000;-0.1465;0.0120;0.1145;0.186
0.683000;-0.1353;0.0410;0.0804;0.163
0.687000;-0.0987;0.0344;0.0251;0.108
0.692000;-0.0702;0.0495;0.0249;0.089
0.697000;-0.0326;0.0647;-0.0085;0.073
0.701000;-0.0668;0.0373;-0.0251;0.081
0.707000;-0.0508;0.0222;-0.0368;0.066
0.712000;-0.0703;0.0500;-0.0175;0.088
0.717000;-0.0726;0.0349;0.0254;0.084
0.723000;-0.0887;0.0317;0.0441;0.104
0.726000;-0.0922;0.0282;0.0936;0.134
0.732000;-0.0762;0.0169;0.1023;0.129
0.736000;-0.0291;0.0145;0.0588;0.067
0.742000;0.0132;-0.0027;0.0157;0.021
0.746000;0.0412;0.0034;-0.0413;0.058
0.751000;0.0595;0.0164;-0.0765;0.098
0.758000;0.0660;0.0103;-0.1018;0.122
0.762000;0.0678;0.0519;-0.1436;0.167
0.765000;0.0553;0.0295;-0.1969;0.207
0.771000;0.0073;0.0217;-0.1952;0.196
0.776000;-0.0091;0.0478;-0.1626;0.170
0.780000;-0.0346;0.0884;-0.1374;0.167
0.785000;-0.0998;0.0840;-0.1125;0.172
0.790000;-0.1496;0.0467;-0.0402;0.162
0.795000;-0.1816;-0.0044;0.0124;0.182
0.800000;-0.2339;-0.0881;0.0575;0.256
0.807000;-0.2375;-0.1355;0.1378;0.306
0.812000;-0.2523;-0.1637;0.2270;0.377
0.815000;-0.2688;-0.2085;0.3296;0.474
0.820000;-0.2372;-0.2369;0.3603;0.492
0.825000;-0.2342;-0.2419;0.4026;0.525
0.832000;-0.1983;-0.2451;0.3876;0.500
0.835000;-0.1585;-0.2418;0.3680;0.468
0.841000;-0.1318;-0.2506;0.3129;0.422
0.847000;-0.1088;-0.2432;0.2560;0.369
0.850000;-0.0302;-0.2479;0.1710;0.303
0.856000;0.0086;-0.1911;0.0440;0.196
0.860000;0.0150;-0.1442;-0.0298;0.148
0.864000;0.0278;-0.1023;-0.1742;0.204
0.876000;0.0112;-0.0322;-0.2722;0.274
0.877000;-0.0033;0.0091;-0.3600;0.360
0.880000;-0.0320;0.1288;-0.3949;0.417
0.884000;-0.0442;0.1893;-0.4578;0.497
0.890000;-0.0349;0.2190;-0.4919;0.540
0.893000;-0.0421;0.2533;-0.5545;0.611
0.898000;-0.0198;0.2662;-0.5692;0.629
0.903000;0.0365;0.2887;-0.6053;0.672
0.910000;0.1193;0.2041;-0.6555;0.697
0.913000;0.1234;0.1872;-0.6699;0.706
0.918000;0.1356;0.1851;-0.6699;0.708
0.924000;0.1392;0.1480;-0.6055;0.639
0.927000;0.1508;0.1140;-0.5199;0.553
0.932000;0.1417;0.0471;-0.4298;0.455
0.937000;0.1213;-0.0242;-0.3209;0.344
0.942000;0.1207;-0.0569;-0.2410;0.275
0.947000;0.0467;-0.0633;-0.1136;0.138
0.952000;0.0136;-0.1243;0.0062;0.125
0.958000;-0.0267;-0.1044;-0.1344;0.172
0.962000;-0.0575;-0.0871;-0.0121;0.105
0.967000;-0.0961;-0.1412;0.0072;0.171
0.979000;-0.1115;-0.1617;-0.0213;0.198
0.980000;-0.1276;-0.2033;-0.0235;0.241
0.982000;-0.1234;-0.2087;-0.0353;0.245
0.991000;-0.1275;-0.2042;-0.0733;0.252
0.993000;-0.1159;-0.1944;-0.1184;0.255
0.996000;-0.0959;-0.1890;-0.1658;0.269
1.002000;-0.0650;-0.1642;-0.1796;0.252
1.006000;-0.0232;-0.1819;-0.2508;0.311
1.010000;0.0181;-0.1707;-0.2835;0.331
1.015000;0.0471;-0.1688;-0.3114;0.357
1.020000;0.1189;-0.1167;-0.3416;0.380
1.026000;0.1477;-0.1075;-0.3764;0.418
1.030000;0.1505;-0.1104;-0.4040;0.445
1.035000;0.2369;-0.0441;-0.4482;0.509
1.040000;0.2898;-0.0448;-0.5185;0.596
1.045000;0.3354;-0.0406;-0.5623;0.656
1.050000;0.3547;-0.0027;-0.6609;0.750
1.054000;0.4026;0.0164;-0.7569;0.857
1.060000;0.4121;0.0789;-0.8287;0.929
1.065000;0.4025;0.1016;-0.8931;0.985
1.070000;0.3667;0.0798;-0.9312;1.004
1.076000;0.3525;0.1117;-0.9071;0.980
1.081000;0.3863;0.1470;-0.8235;0.921
1.084000;0.3389;0.1187;-0.7474;0.829
1.093000;0.3300;0.1340;-0.6500;0.741
1.094000;0.3072;0.0925;-0.5768;0.660
1.099000;0.2779;0.0729;-0.5587;0.628
1.104000;0.2735;0.0366;-0.5239;0.592
1.111000;0.2559;0.0220;-0.4748;0.540
1.113000;0.1773;-0.0165;-0.4641;0.497
1.118000;0.1359;-0.0380;-0.3532;0.380
1.124000;0.0928;-0.0925;-0.2593;0.291
1.128000;0.0693;-0.1369;-0.1609;0.222
1.133000;0.0840;-0.2190;-0.0604;0.242
1.137000;0.0700;-0.2480;0.0756;0.269
1.144000;0.0795;-0.3296;0.1993;0.393
1.152000;0.0816;-0.3536;0.3489;0.503
1.153000;0.0878;-0.4018;0.4718;0.626
1.161000;0.0625;-0.3694;0.5419;0.659
1.163000;0.0677;-0.3785;0.6262;0.735
1.169000;0.0507;-0.3336;0.6338;0.718
1.185000;0.0664;-0.2969;0.6104;0.682
1.186000;0.0220;-0.2803;0.6086;0.670
1.186000;0.0132;-0.2263;0.5066;0.555
1.194000;-0.0338;-0.1590;0.4263;0.456
1.195000;-0.0664;-0.1304;0.3606;0.389
1.197000;-0.0798;-0.1045;0.3142;0.341
1.202000;-0.1193;-0.0742;0.2823;0.315
1.207000;-0.1368;-0.0703;0.2599;0.302
1.211000;-0.1445;-0.0233;0.2520;0.291
1.216000;-0.1446;-0.0433;0.2823;0.320
1.221000;-0.1516;-0.0202;0.3435;0.376
1.227000;-0.1440;0.0003;0.4118;0.436
1.231000;-0.1098;-0.0177;0.4512;0.465
1.236000;-0.0947;0.0044;0.4810;0.490
1.241000;-0.0842;-0.0102;0.4987;0.506
1.246000;-0.0712;-0.0422;0.4997;0.507
1.250000;-0.0532;-0.0413;0.4721;0.477
1.255000;-0.0447;-0.0551;0.4589;0.464
1.260000;-0.0433;-0.0573;0.4434;0.449
1.266000;-0.0373;-0.0622;0.4494;0.455
1.271000;-0.0575;-0.0649;0.4458;0.454
1.276000;-0.0874;-0.0702;0.4422;0.456
1.280000;-0.1247;-0.0444;0.4673;0.486
1.285000;-0.1982;-0.0139;0.4446;0.487
1.291000;-0.2485;0.0050;0.4386;0.504
1.295000;-0.3113;0.0216;0.4565;0.553
1.300000;-0.3723;0.0549;0.4815;0.611
1.305000;-0.4172;0.0549;0.4849;0.642
1.310000;-0.4195;0.0739;0.5146;0.668
1.315000;-0.4035;0.0763;0.5060;0.652
1.319000;-0.4070;0.0354;0.5142;0.657
1.324000;-0.3798;0.0088;0.5343;0.656
1.331000;-0.3432;0.0034;0.5399;0.640
1.334000;-0.3189;-0.0099;0.5456;0.632
1.339000;-0.2992;-0.0049;0.5203;0.600
1.344000;-0.2746;-0.0199;0.4449;0.523
1.349000;-0.2688;-0.0192;0.3840;0.469
1.354000;-0.2510;-0.0148;0.3019;0.393
1.361000;-0.2304;-0.0206;0.1985;0.305
1.363000;-0.2237;0.0373;0.0691;0.237
1.370000;-0.2286;0.0732;-0.0122;0.240
1.378000;-0.2215;0.1135;-0.0742;0.260
1.379000;-0.2766;0.1510;-0.1623;0.354
1.383000;-0.2741;0.1741;-0.2430;0.406
1.388000;-0.2860;0.1878;-0.3306;0.476
1.393000;-0.2884;0.2018;-0.4085;0.539
1.398000;-0.2739;0.1638;-0.4146;0.523
1.403000;-0.2856;0.1553;-0.4469;0.553
1.410000;-0.2780;0.1426;-0.4338;0.535
1.413000;-0.3110;0.1160;-0.4517;0.561
1.417000;-0.3102;0.0590;-0.4100;0.517
1.422000;-0.3378;0.0286;-0.3636;0.497
1.431000;-0.3484;-0.0038;-0.2958;0.457
1.435000;-0.3373;-0.0791;-0.2115;0.406
1.437000;-0.2689;-0.1064;-0.1106;0.310
1.443000;-0.2033;-0.1627;-0.0244;0.261
1.446000;-0.1525;-0.1858;0.0020;0.240
1.452000;-0.1094;-0.2073;-0.0528;0.240
1.459000;-0.0931;-0.2128;-0.1338;0.268
1.461000;-0.1107;-0.2189;-0.2718;0.366
1.466000;-0.1716;-0.1846;-0.4071;0.479
1.471000;-0.2161;-0.0931;-0.4967;0.550
1.476000;-0.2371;-0.0135;-0.6123;0.657
1.481000;-0.2536;0.0736;-0.7158;0.763
1.486000;-0.2562;0.1684;-0.8095;0.866
1.492000;-0.2470;0.2350;-0.9053;0.967
1.496000;-0.2405;0.2759;-0.9818;1.048
1.501000;-0.2722;0.2891;-1.0773;1.148
1.506000;-0.2677;0.2916;-1.1463;1.213
1.512000;-0.2890;0.2836;-1.1818;1.249
1.516000;-0.2760;0.2484;-1.0812;1.143
1.521000;-0.2409;0.2006;-0.9641;1.014
1.527000;-0.2075;0.1684;-0.8115;0.854
1.533000;-0.1429;0.1133;-0.6545;0.679
1.537000;-0.0806;0.0586;-0.4860;0.496
1.540000;-0.0541;0.0114;-0.3919;0.396
1.544000;0.0251;-0.0238;-0.3266;0.328
1.551000;0.0420;-0.0399;-0.2663;0.273
1.555000;0.0637;-0.0920;-0.2324;0.258
1.560000;0.0855;-0.0726;-0.1961;0.226
1.564000;0.1242;-0.0653;-0.1576;0.211
1.569000;0.1009;-0.0270;-0.1072;0.150
1.577000;0.1040;-0.0009;-0.0760;0.129
1.583000;0.1070;0.0535;-0.0520;0.130
1.584000;0.0863;0.1075;-0.0496;0.147
1.588000;0.0777;0.1544;-0.0567;0.182
1.593000;0.0716;0.2178;-0.0733;0.241
1.598000;0.0540;0.2788;-0.0995;0.301
1.603000;0.0584;0.3138;-0.0970;0.334
1.608000;0.0156;0.3183;-0.0849;0.330
1.613000;0.0643;0.2970;0.1086;0.323
1.618000;0.0228;0.3095;-0.1018;0.327
1.623000;0.0035;0.2606;0.2206;0.341
1.628000;-0.0416;0.2264;0.3776;0.442
1.632000;-0.0599;0.2020;0.4483;0.495
1.637000;-0.0969;0.1560;0.6047;0.632
1.643000;-0.1191;0.1124;0.7131;0.732
1.647000;-0.1695;0.0471;0.8380;0.856
1.652000;-0.1458;-0.0019;0.9435;0.955
1.657000;-0.1051;-0.0585;1.0464;1.053
1.663000;-0.1003;-0.0991;1.0918;1.101
1.667000;-0.0693;-0.1238;1.1133;1.122
1.672000;-0.0908;-0.1592;1.1490;1.164
1.677000;-0.0718;-0.1787;1.1465;1.163
1.681000;-0.0987;-0.1657;1.1511;1.167
1.686000;-0.0854;-0.1207;1.0889;1.099
1.692000;-0.0563;-0.1055;0.9696;0.977
1.696000;-0.0880;-0.0890;0.8194;0.829
1.702000;-0.1184;-0.0206;0.6243;0.636
1.706000;-0.1378;0.0209;0.4272;0.449
1.711000;-0.1271;0.1002;0.2615;0.308
1.716000;-0.1074;0.1722;0.1225;0.237
1.721000;-0.0838;0.2847;0.0124;0.297
1.727000;-0.0461;0.3086;-0.1189;0.334
1.732000;0.0007;0.3470;-0.2332;0.418
1.736000;0.0546;0.3591;-0.3664;0.516
1.741000;0.0778;0.3954;-0.4635;0.614
1.746000;0.1514;0.4413;-0.5460;0.718
1.751000;0.1896;0.4443;-0.6116;0.779
1.757000;0.2378;0.4765;-0.6939;0.875
1.763000;0.2865;0.4782;-0.7258;0.915
1.771000;0.3236;0.5019;-0.7433;0.954
1.772000;0.3659;0.4808;-0.7609;0.972
1.781000;0.3487;0.4677;-0.7330;0.937
1.781000;0.4205;0.4266;-0.7052;0.925
1.785000;0.4592;0.3791;-0.6488;0.881
1.790000;0.4623;0.3207;-0.6045;0.826
1.795000;0.4873;0.2536;-0.4934;0.738
1.800000;0.5054;0.1635;-0.3444;0.633
1.805000;0.4809;0.0765;-0.2004;0.527
1.810000;0.4638;0.0209;-0.0735;0.470
1.815000;0.4041;-0.0439;0.0603;0.411
1.820000;0.4187;-0.0873;0.1843;0.466
1.825000;0.4022;-0.1237;0.3248;0.532
1.830000;0.4047;-0.1342;0.4363;0.610
1.834000;0.3809;-0.1719;0.5500;0.691
1.839000;0.3665;-0.2291;0.5895;0.731
1.845000;0.3280;-0.2561;0.5954;0.726
1.851000;0.2964;-0.2744;0.6277;0.746
1.853000;0.2646;-0.2649;0.5691;0.681
1.865000;0.2563;-0.2729;0.5274;0.647
1.865000;0.2263;-0.2624;0.5359;0.638
1.875000;0.1915;-0.2786;0.5109;0.613
1.877000;0.1396;-0.2614;0.5123;0.592
1.877000;0.0516;-0.2496;0.4731;0.537
1.888000;0.0183;-0.2334;0.4650;0.521
1.888000;0.0109;-0.2390;0.4044;0.470
1.893000;0.0148;-0.2306;0.3487;0.418
1.897000;0.0134;-0.1916;0.2979;0.354
1.902000;0.0545;-0.1908;0.2043;0.285
1.907000;0.1356;-0.1857;0.1323;0.265
1.911000;0.1921;-0.1665;0.0270;0.256
1.917000;0.2195;-0.1618;-0.0876;0.286
1.921000;0.2634;-0.0878;-0.2164;0.352
1.926000;0.2928;-0.0833;-0.3377;0.455
1.931000;0.3053;-0.0283;-0.4659;0.558
1.936000;0.3323;-0.0137;-0.5580;0.650
1.941000;0.3428;0.0037;-0.6285;0.716
1.948000;0.3584;0.0336;-0.6750;0.765
1.951000;0.3698;0.0547;-0.6879;0.783
1.956000;0.3815;0.0428;-0.6937;0.793
1.961000;0.3721;0.0766;-0.6852;0.783
1.969000;0.3698;0.0462;-0.7077;0.800
1.971000;0.3556;0.0355;-0.7134;0.798
1.984000;0.3200;0.0563;-0.7121;0.783
1.985000;0.2921;0.0322;-0.7154;0.773
1.985000;0.2741;0.0254;-0.6902;0.743
1.991000;0.2232;0.0550;-0.6578;0.697
1.995000;0.1777;0.0443;-0.5993;0.627
1.999000;0.1613;-0.0065;-0.5217;0.546
2.006000;0.1524;-0.0426;-0.4467;0.474
2.011000;0.1247;-0.0497;-0.3313;0.357
2.015000;0.1068;-0.0805;-0.2471;0.281
2.019000;0.0934;-0.0823;-0.1726;0.213
2.025000;0.0676;-0.1295;-0.1365;0.200
2.031000;0.0291;-0.1619;-0.1291;0.209
2.034000;0.0019;-0.1817;-0.0812;0.199
2.039000;-0.0399;-0.1797;0.0001;0.184
2.045000;-0.0601;-0.1582;0.0908;0.192
2.049000;-0.1183;-0.1272;0.1503;0.230
2.054000;-0.1431;-0.1251;0.2192;0.290
2.062000;-0.1535;-0.1566;0.2569;0.338
2.067000;-0.1638;-0.1574;0.2970;0.374
2.073000;-0.2028;-0.1703;0.3370;0.429
2.074000;-0.2013;-0.2073;0.3411;0.447
2.083000;-0.2235;-0.2514;0.3953;0.519
2.083000;-0.2070;-0.2885;0.4495;0.573
2.088000;-0.2281;-0.2781;0.5155;0.629
2.093000;-0.2175;-0.2683;0.5695;0.666
2.098000;-0.2278;-0.2830;0.6424;0.738
2.103000;-0.2518;-0.2866;0.6532;0.756
2.107000;-0.2946;-0.2767;0.6926;0.802
2.114000;-0.3466;-0.2674;0.6913;0.818
2.118000;-0.3628;-0.2589;0.6757;0.809
2.122000;-0.3625;-0.2103;0.6315;0.758
2.128000;-0.3679;-0.1596;0.5539;0.684
2.132000;-0.3384;-0.1571;0.4861;0.613
2.137000;-0.2620;-0.1423;0.4064;0.504
2.142000;-0.2010;-0.1369;0.3173;0.400
2.147000;-0.1579;-0.1431;0.2284;0.312
2.152000;-0.1179;-0.1416;0.1444;0.234
2.156000;-0.0810;-0.1442;0.0605;0.176
2.162000;-0.0778;-0.1415;0.0532;0.170
2.166000;-0.0723;-0.1310;0.0651;0.163
2.171000;-0.0761;-0.1368;0.1342;0.206
2.186000;-0.0844;-0.1423;0.2462;0.297
2.187000;-0.0757;-0.1481;0.3724;0.408
2.187000;-0.0668;-0.1473;0.4242;0.454
2.192000;-0.0316;-0.1476;0.4689;0.493
2.196000;-0.0129;-0.1539;0.4609;0.486
2.201000;0.0106;-0.1471;0.3932;0.420
2.205000;0.0032;-0.1199;0.3233;0.345
2.210000;0.0271;-0.1130;0.1986;0.230
2.215000;0.0200;-0.0472;0.0741;0.090
2.220000;0.0034;0.0132;-0.0334;0.036
2.225000;0.0158;0.0662;-0.1813;0.194
2.231000;0.0068;0.1309;-0.2788;0.308
2.235000;-0.0593;0.1984;-0.3642;0.419
2.240000;-0.0868;0.2495;-0.3850;0.467
2.246000;-0.1283;0.2654;-0.4320;0.523
2.250000;-0.1954;0.2701;-0.3834;0.508
2.255000;-0.2548;0.2898;-0.3468;0.519
2.262000;-0.2895;0.2695;-0.2792;0.484
2.264000;-0.2948;0.2334;-0.1856;0.419
2.269000;-0.2998;0.1453;-0.0849;0.344
2.274000;-0.2999;0.0649;0.0347;0.309
2.282000;-0.2472;-0.0513;-0.0370;0.255
2.284000;-0.1710;-0.0550;0.2378;0.298
2.289000;-0.1049;-0.1263;0.4285;0.459
2.294000;-0.0586;-0.1457;0.2893;0.329
2.299000;-0.0086;-0.1564;0.2578;0.302
2.304000;-0.0073;-0.1438;0.1332;0.196
2.309000;0.0103;-0.0958;0.0113;0.097
2.313000;-0.0058;-0.0624;-0.1176;0.133
2.318000;0.0019;0.0071;-0.2797;0.280
2.323000;-0.0261;0.0696;-0.3341;0.342
2.328000;-0.0921;0.1494;-0.4075;0.444
2.333000;-0.1191;0.2251;-0.4425;0.511
2.337000;-0.1767;0.2202;-0.4298;0.514
2.343000;-0.1975;0.2280;-0.4123;0.511
2.348000;-0.2511;0.2318;-0.3352;0.479
2.353000;-0.2422;0.1837;-0.2558;0.397
2.358000;-0.2494;0.1529;-0.1359;0.323
2.363000;-0.1607;0.1080;-0.0234;0.195
2.367000;-0.1316;0.0418;0.0387;0.143
2.372000;-0.1023;-0.0220;0.1318;0.168
2.379000;-0.0780;-0.0837;0.1960;0.227
2.382000;-0.0421;-0.0860;0.1766;0.201
2.387000;-0.0186;-0.1173;0.1620;0.201
2.392000;-0.0004;-0.1297;0.1235;0.179
2.399000;0.0437;-0.1137;0.0707;0.141
2.402000;0.0251;-0.0525;0.0181;0.061
2.408000;0.0036;-0.0393;-0.0846;0.093
2.412000;-0.0061;0.0146;-0.1848;0.185
2.417000;-0.0279;0.0400;-0.2800;0.284
2.422000;-0.0732;0.1017;-0.3297;0.353
2.427000;-0.0777;0.1351;-0.3340;0.369
2.431000;-0.1110;0.1595;-0.3836;0.430
2.436000;-0.1155;0.1820;-0.3878;0.444
2.441000;-0.0842;0.1548;-0.3561;0.397
2.446000;-0.0672;0.1542;-0.2959;0.340
2.451000;-0.0168;0.1324;-0.2835;0.313
2.455000;0.0905;0.1034;-0.2711;0.304
2.462000;0.1472;0.0840;-0.2612;0.311
2.465000;0.2201;0.0694;-0.3229;0.397
2.470000;0.2758;0.0811;-0.3655;0.465
2.475000;0.3121;0.0858;-0.3984;0.513
2.491000;0.3577;0.1073;-0.4241;0.565
2.491000;0.3888;0.0810;-0.4234;0.581
2.492000;0.4080;0.0885;-0.4252;0.596
2.500000;0.4059;0.1126;-0.4102;0.588
2.501000;0.3920;0.1293;-0.4024;0.577
2.505000;0.3140;0.1743;-0.4257;0.557
2.509000;0.2987;0.2001;-0.4203;0.553
2.514000;0.2720;0.1708;-0.4197;0.528
2.519000;0.2721;0.1871;-0.3904;0.511
2.524000;0.2583;0.1775;-0.3588;0.476
2.529000;0.2568;0.1584;-0.3177;0.438
2.534000;0.2289;0.1348;-0.2431;0.360
2.539000;0.2345;0.1353;-0.1927;0.332
2.545000;0.2421;0.1502;-0.1399;0.317
2.551000;0.2085;0.1365;-0.1086;0.272
2.553000;0.2315;0.1112;-0.0799;0.269
2.559000;0.2183;0.0981;-0.0559;0.246
2.564000;0.2189;0.0709;0.0086;0.230
2.569000;0.1976;-0.0016;0.0276;0.200
2.573000;0.2263;-0.0475;0.0514;0.237
2.580000;0.2264;-0.0958;0.1182;0.273
2.583000;0.2340;-0.1442;0.1872;0.333
2.589000;0.2685;-0.1715;0.2609;0.412
2.592000;0.2750;-0.1829;0.3154;0.457
2.608000;0.2320;-0.1855;0.3555;0.463
2.609000;0.1541;-0.2058;0.3406;0.427
2.609000;0.0795;-0.2176;0.3114;0.388
2.613000;-0.0016;-0.1897;0.3086;0.362
2.617000;-0.0917;-0.1959;0.2699;0.346
2.622000;-0.1480;-0.1835;0.1715;0.292
2.628000;-0.2424;-0.1666;0.1737;0.342
2.632000;-0.3012;-0.1614;0.1639;0.379
2.637000;-0.3199;-0.1390;0.1326;0.373
2.642000;-0.3582;-0.0901;0.0942;0.381
2.647000;-0.3950;-0.1076;0.0893;0.419
2.651000;-0.4614;-0.0743;0.0629;0.472
2.656000;-0.4688;-0.0428;0.0317;0.472
2.664000;-0.4361;-0.0133;0.0173;0.437
2.666000;-0.4041;0.0170;0.0149;0.405
2.671000;-0.3655;0.0238;0.0124;0.367
2.676000;-0.2913;-0.0097;0.0004;0.291
2.692000;-0.2603;0.0240;-0.0211;0.262
2.693000;-0.2218;0.0337;-0.0378;0.228
2.694000;-0.2069;0.0314;-0.0832;0.225
2.696000;-0.1771;0.0554;-0.0974;0.210
2.702000;-0.1446;0.0603;-0.0902;0.181
2.705000;-0.1478;0.0413;-0.1139;0.191
2.711000;-0.1173;0.0441;-0.1616;0.204
2.715000;-0.0745;0.0353;-0.1877;0.205
2.720000;-0.0717;-0.0282;-0.2018;0.216
2.725000;-0.1069;-0.0457;-0.1585;0.197
2.729000;-0.1153;-0.0674;-0.0150;0.134
2.735000;-0.1356;-0.0717;0.0996;0.183
2.739000;-0.1391;-0.1025;0.2523;0.306
2.744000;-0.1022;-0.1192;0.3666;0.399
2.749000;-0.0920;-0.1272;0.4496;0.476
2.755000;-0.0894;-0.1267;0.4561;0.482
2.759000;-0.0657;-0.1272;0.4244;0.448
2.764000;-0.0876;-0.1331;0.3807;0.413
2.770000;-0.0621;-0.1326;0.2941;0.329
2.774000;-0.0633;-0.1037;0.2435;0.272
2.783000;-0.0863;-0.0800;0.1811;0.216
2.786000;-0.1405;-0.0158;0.0948;0.170
2.792000;-0.1684;-0.0378;0.0660;0.185
2.793000;-0.2158;0.0549;0.0157;0.223
2.798000;-0.2752;0.0836;-0.0082;0.288
2.803000;-0.2941;0.1077;-0.0106;0.313
2.808000;-0.2988;0.1320;-0.0225;0.327
2.814000;-0.2896;0.1494;-0.0201;0.326
2.818000;-0.2781;0.1312;-0.0224;0.308
2.822000;-0.2737;0.0916;-0.0057;0.289
2.827000;-0.2738;0.0691;0.0206;0.283
2.833000;-0.2404;0.0395;0.0421;0.247
2.837000;-0.2042;0.0098;0.0898;0.223
2.842000;-0.1738;-0.0222;0.1389;0.224
2.851000;-0.1339;-0.0379;0.1686;0.219
2.852000;-0.1180;-0.0256;0.1625;0.202
2.857000;-0.0977;-0.0329;0.1255;0.162
2.864000;-0.0871;-0.0453;0.0628;0.117
2.866000;-0.0650;-0.0152;0.0006;0.067
2.872000;-0.0816;-0.0021;-0.1085;0.136
2.876000;-0.0533;0.0346;-0.1621;0.174
2.883000;-0.0493;0.0949;-0.1964;0.224
2.889000;-0.0836;0.1077;-0.2754;0.307
2.892000;-0.0897;0.1612;-0.3324;0.380
2.896000;-0.1006;0.2005;-0.3533;0.418
2.901000;-0.1123;0.2011;-0.3766;0.442
2.906000;-0.0905;0.2046;-0.3785;0.440
2.911000;-0.0900;0.2111;-0.3468;0.416
2.918000;-0.0607;0.2038;-0.2938;0.363
2.921000;0.0096;0.1848;-0.2527;0.313
2.925000;0.0228;0.1973;-0.1735;0.264
2.931000;0.0076;0.1311;-0.0992;0.165
2.936000;0.0072;0.1151;-0.0441;0.123
2.940000;-0.0024;0.0919;0.0301;0.097
2.946000;0.0483;0.0948;0.1615;0.193
2.954000;0.0706;-0.0005;0.4527;0.458
2.955000;0.1502;-0.0005;0.2729;0.312
2.961000;0.1846;0.0586;0.3060;0.362
2.967000;0.2260;0.0310;0.4274;0.484
2.969000;0.2196;-0.0067;0.3838;0.442
2.975000;0.1843;-0.0355;0.3929;0.435
2.981000;0.1655;0.0069;0.3493;0.387
2.985000;0.1368;0.0729;0.2724;0.313
2.989000;0.1389;0.1172;0.2745;0.329
3.009000;0.0786;0.1327;0.2311;0.278
3.010000;0.0182;0.1720;0.2237;0.283
3.011000;-0.0639;0.1850;0.1709;0.260
3.011000;-0.0765;0.1814;0.1253;0.233
3.021000;-0.1057;0.2065;0.1108;0.257
3.022000;-0.1466;0.2220;0.0988;0.284
3.023000;-0.1300;0.2135;0.0915;0.266
3.029000;-0.1057;0.2025;0.0604;0.236
3.034000;-0.0645;0.2273;0.0436;0.240
3.038000;-0.0613;0.2522;0.0292;0.261
3.043000;-0.0195;0.2126;0.0029;0.213
3.049000;-0.0083;0.1922;-0.0018;0.192
3.053000;0.0274;0.1792;0.0340;0.184
3.058000;0.0251;0.1615;0.0531;0.172
3.064000;0.0469;0.1702;0.1032;0.205
3.071000;0.0331;0.1456;0.1365;0.202
3.073000;0.0027;0.1423;0.1913;0.238
3.077000;-0.0276;0.1292;0.1791;0.223
3.085000;-0.0577;0.1448;0.2338;0.281
3.088000;-0.0902;0.1577;0.2574;0.315
3.092000;-0.0796;0.1776;0.2522;0.319
3.097000;-0.1291;0.1830;0.2471;0.334
3.102000;-0.1382;0.1357;0.2396;0.308
3.106000;-0.1881;0.1289;0.1629;0.280
3.111000;-0.2116;0.1317;0.1961;0.317
3.117000;-0.2134;0.1608;0.2293;0.352
3.122000;-0.2031;0.1706;0.2338;0.354
3.126000;-0.2116;0.1586;0.2741;0.381
3.131000;-0.2103;0.1630;0.2571;0.370
3.136000;-0.2207;0.1431;0.2424;0.358
3.141000;-0.2045;0.1134;0.2947;0.376
3.147000;-0.1749;0.0993;0.2970;0.359
3.151000;-0.1503;0.1227;0.2826;0.343
3.156000;-0.1358;0.1764;0.2756;0.354
3.160000;-0.1335;0.2222;0.2140;0.336
3.166000;-0.1434;0.2506;0.0913;0.303
3.170000;-0.1724;0.2691;0.0076;0.320
3.175000;-0.1682;0.2757;-0.0968;0.337
3.183000;-0.1857;0.2922;-0.1434;0.375
3.185000;-0.1936;0.3045;-0.1825;0.404
3.190000;-0.1945;0.3009;-0.1951;0.408
3.195000;-0.2407;0.2790;-0.1863;0.413
3.200000;-0.2225;0.2722;-0.1491;0.382
3.205000;-0.2588;0.2684;-0.0434;0.375
3.209000;-0.2616;0.2387;0.0210;0.355
3.214000;-0.2570;0.1998;0.0707;0.333
3.219000;-0.1955;0.1682;0.1295;0.289
3.224000;-0.1771;0.1035;0.1972;0.285
3.229000;-0.1540;0.0531;0.2265;0.279
3.234000;-0.0956;-0.0212;0.2318;0.252
3.239000;-0.0615;-0.0339;0.1967;0.209
3.244000;-0.0679;-0.0165;0.1595;0.174
3.251000;-0.0290;-0.0376;0.1298;0.138
3.254000;-0.0118;0.0001;0.0695;0.071
3.259000;0.0004;-0.0101;-0.0116;0.015
3.265000;-0.0401;0.0056;-0.1039;0.112
3.269000;-0.0475;0.0141;-0.2025;0.209
3.273000;-0.0792;0.0631;-0.2932;0.310
3.279000;-0.1135;0.0531;-0.3713;0.392
3.285000;-0.1172;0.0630;-0.4013;0.423
3.291000;-0.0858;0.0926;-0.4287;0.447
3.293000;-0.0698;0.1045;-0.4472;0.465
3.312000;-0.0569;0.0788;-0.4513;0.462
3.313000;-0.0419;0.0561;-0.4602;0.465
3.313000;-0.0032;0.0435;-0.4356;0.438
3.313000;0.0713;0.0242;-0.4135;0.420
3.318000;0.1316;-0.0043;-0.3723;0.395
3.322000;0.1539;-0.0374;-0.3360;0.371
3.327000;0.2006;-0.0824;-0.2638;0.342
3.333000;0.2740;-0.0940;-0.2491;0.382
3.337000;0.3214;-0.1057;-0.2009;0.394
3.343000;0.3333;-0.1223;-0.1887;0.402
3.348000;0.3669;-0.1578;-0.2052;0.449
3.352000;0.3887;-0.1623;-0.1834;0.459
3.357000;0.3915;-0.1716;-0.1712;0.460
3.361000;0.3753;-0.1615;-0.1829;0.448
3.367000;0.3377;-0.1776;-0.1707;0.418
3.371000;0.3932;-0.1813;-0.1753;0.467
3.376000;0.3816;-0.1703;-0.1416;0.441
3.390000;0.4062;-0.1924;-0.1582;0.476
3.391000;0.4550;-0.2116;-0.1055;0.513
3.394000;0.4539;-0.2353;-0.0146;0.512
3.396000;0.4676;-0.2614;-0.0027;0.536
3.401000;0.4796;-0.2613;0.0690;0.550
3.406000;0.4823;-0.2351;0.1190;0.550
3.411000;0.4924;-0.2356;0.1594;0.569
3.416000;0.5074;-0.2345;0.1664;0.583
3.420000;0.5108;-0.2532;0.1470;0.589
3.425000;0.5024;-0.2292;0.0966;0.561
3.431000;0.5470;-0.2654;0.0415;0.609
3.435000;0.6880;-0.2658;0.0295;0.738
3.440000;0.5959;-0.2786;0.1059;0.666
3.446000;0.4734;-0.2464;0.2156;0.576
3.452000;0.4755;-0.2385;0.2416;0.584
3.457000;0.4990;-0.2096;0.2270;0.587
3.460000;0.4650;-0.1504;0.2147;0.534
3.465000;0.4308;-0.0847;0.1643;0.469
3.469000;0.4490;-0.0532;0.1092;0.465
3.475000;0.4498;-0.0411;0.0590;0.455
3.479000;0.4573;-0.0081;-0.0175;0.458
3.484000;0.4859;0.0463;-0.0986;0.498
3.489000;0.5142;0.1076;-0.1653;0.551
3.494000;0.5828;0.1924;-0.2486;0.662
3.508000;0.6346;0.2865;-0.3389;0.774
3.508000;0.6531;0.3016;-0.4220;0.834
3.511000;0.6766;0.3116;-0.5049;0.900
3.513000;0.7315;0.3193;-0.6140;1.007
3.518000;0.7558;0.3366;-0.6920;1.079
3.523000;0.7688;0.3279;-0.7603;1.130
3.531000;0.7181;0.3530;-0.8094;1.138
3.533000;0.6489;0.3449;-0.8321;1.110
3.538000;0.5732;0.3639;-0.8788;1.111
3.542000;0.4620;0.3264;-0.8657;1.034
3.548000;0.3773;0.2972;-0.8598;0.985
3.553000;0.2520;0.2721;-0.8277;0.907
3.557000;0.1911;0.2129;-0.7264;0.781
3.562000;0.0081;0.0958;-0.6157;0.623
3.571000;-0.0725;0.0117;-0.4645;0.470
3.572000;-0.1082;-0.1161;-0.2682;0.312
3.577000;-0.0512;-0.2922;-0.0579;0.302
3.584000;-0.0022;-0.4166;0.1068;0.430
3.591000;0.0920;-0.5302;0.3572;0.646
3.591000;0.1856;-0.6625;0.6002;0.913
3.597000;0.2765;-0.8089;0.8214;1.186
3.612000;0.3406;-0.9055;1.0160;1.403
3.612000;0.4041;-0.9599;1.1555;1.556
3.613000;0.4692;-0.9849;1.2972;1.695
3.616000;0.4735;-0.9991;1.2309;1.655
3.621000;0.4386;-0.9412;1.1313;1.536
3.627000;0.3955;-0.8873;1.1322;1.492
3.636000;0.3396;-0.8326;0.8894;1.265
3.637000;0.2395;-0.7599;0.6661;1.039
3.641000;0.1219;-0.6782;0.5243;0.866
3.646000;0.0444;-0.5396;0.3851;0.664
3.651000;-0.0548;-0.3963;0.2795;0.488
3.656000;-0.1016;-0.2844;0.1406;0.333
3.660000;-0.1219;-0.2015;0.0592;0.243
3.667000;-0.1538;-0.1093;-0.0316;0.191
3.670000;-0.1562;-0.0557;-0.1127;0.201
3.675000;-0.1412;0.0024;-0.1555;0.210
3.679000;-0.0989;0.0458;-0.1887;0.218
3.694000;-0.0988;0.0601;-0.2505;0.276
3.694000;-0.0429;0.0500;-0.3242;0.331
3.695000;-0.0174;0.0586;-0.3858;0.391
3.708000;-0.0127;0.0934;-0.4187;0.429
3.710000;-0.0244;0.1281;-0.4970;0.514
3.712000;-0.0356;0.1654;-0.5536;0.579
3.715000;-0.0871;0.1813;-0.5289;0.566
3.719000;-0.1096;0.2026;-0.5545;0.600
3.724000;-0.1462;0.2149;-0.5036;0.567
3.729000;-0.1685;0.2204;-0.4767;0.552
3.733000;-0.1763;0.2286;-0.4259;0.515
3.739000;-0.2032;0.2254;-0.3966;0.499
3.744000;-0.2108;0.2344;-0.3316;0.458
3.749000;-0.2401;0.2605;-0.2882;0.457
3.755000;-0.2838;0.2699;-0.2711;0.476
3.759000;-0.3085;0.2368;-0.2350;0.454
3.763000;-0.3072;0.2161;-0.2228;0.437
3.768000;-0.2822;0.1983;-0.1867;0.392
3.773000;-0.2478;0.2049;-0.1196;0.343
3.778000;-0.2019;0.1761;-0.0789;0.279
3.784000;-0.1780;0.1763;-0.0335;0.253
3.788000;-0.1425;0.1433;0.0143;0.203
3.793000;-0.1313;0.1127;0.0405;0.178
3.797000;-0.1323;0.1227;0.0499;0.187
3.816000;-0.0999;0.1041;0.0545;0.154
3.818000;-0.0916;0.1403;0.0855;0.188
3.818000;-0.0761;0.1692;0.0566;0.194
3.819000;-0.0892;0.2173;0.0493;0.240
3.822000;-0.0757;0.2126;0.0325;0.228
3.827000;-0.0979;0.2006;0.0037;0.223
3.832000;-0.0889;0.2245;-0.0155;0.242
3.836000;-0.1036;0.2176;-0.0561;0.247
3.841000;-0.0942;0.2589;-0.0442;0.279
3.847000;-0.0968;0.2836;-0.0132;0.300
3.852000;-0.0830;0.2751;0.0322;0.289
3.856000;-0.0718;0.2955;0.0464;0.308
3.861000;-0.0608;0.3064;0.0486;0.316
3.866000;-0.0168;0.3196;0.0413;0.323
3.871000;-0.0019;0.3228;0.0388;0.325
3.876000;0.0272;0.3164;-0.0115;0.318
3.881000;0.0587;0.3171;-0.0306;0.324
3.886000;0.0738;0.3535;-0.0450;0.364
3.890000;0.0845;0.3396;-0.0307;0.351
3.895000;0.1007;0.3636;-0.0426;0.380
3.913000;0.1200;0.3826;-0.0044;0.401
3.914000;0.0827;0.3847;-0.0068;0.394
3.914000;0.0604;0.3553;0.0194;0.361
3.916000;0.0365;0.3567;0.0050;0.359
3.920000;0.0277;0.3839;0.0312;0.386
3.926000;0.0028;0.3675;0.0430;0.370
3.931000;-0.0192;0.3390;0.0214;0.340
3.934000;-0.0384;0.3750;0.0285;0.378
3.940000;-0.0975;0.3581;0.0211;0.372
3.944000;-0.1064;0.3389;0.0351;0.357
3.949000;-0.0941;0.3367;0.0395;0.352
3.954000;-0.1036;0.3178;0.0582;0.339
3.959000;-0.1086;0.3180;0.0553;0.341
3.964000;-0.1043;0.2828;0.0477;0.305
3.971000;-0.1048;0.2672;0.0496;0.291
3.974000;-0.0981;0.2210;0.0895;0.258
3.979000;-0.1030;0.1871;0.1433;0.257
3.986000;-0.1031;0.1653;0.1919;0.273
3.990000;-0.0958;0.1270;0.2519;0.298
3.993000;-0.1028;0.0934;0.2878;0.320
4.017000;-0.1238;0.0832;0.2783;0.316
4.018000;-0.1377;0.0440;0.2570;0.295
4.018000;-0.1420;0.0521;0.2501;0.292
4.019000;-0.1298;0.0430;0.2219;0.261
4.019000;-0.1037;0.0598;0.1727;0.210
4.023000;-0.1328;0.0857;0.1238;0.201
4.028000;-0.1007;0.1062;0.0422;0.152
4.033000;-0.1145;0.1432;-0.0364;0.187
4.037000;-0.1286;0.1846;-0.1452;0.268
4.043000;-0.1381;0.2233;-0.2246;0.346
4.049000;-0.1407;0.2528;-0.2844;0.406
4.053000;-0.1695;0.2610;-0.3366;0.458
4.057000;-0.2242;0.3218;-0.3812;0.547
4.062000;-0.2215;0.3445;-0.4326;0.596
4.071000;-0.1997;0.3507;-0.4266;0.587
4.072000;-0.1528;0.3286;-0.3997;0.540
4.077000;-0.0842;0.3140;-0.4207;0.532
4.085000;-0.0227;0.2877;-0.4154;0.506
4.090000;0.0318;0.2737;-0.4866;0.559
4.091000;0.0481;0.2362;-0.5362;0.588
4.096000;0.0481;0.1944;-0.5858;0.619
4.119000;0.0461;0.1418;-0.5827;0.601
4.121000;0.0420;0.0688;-0.4817;0.488
4.121000;0.0382;-0.0387;-0.3545;0.359
4.122000;0.0607;-0.1141;-0.1797;0.221
4.122000;0.0734;-0.1673;0.0115;0.183
4.125000;0.0808;-0.2323;0.1596;0.293
4.131000;0.0706;-0.2807;0.2978;0.415
4.136000;0.0976;-0.3248;0.4168;0.537
4.140000;0.1070;-0.3385;0.4903;0.605
4.145000;0.1248;-0.3509;0.5278;0.646
4.150000;0.1680;-0.3384;0.5462;0.664
4.155000;0.2081;-0.2915;0.4858;0.604
4.160000;0.2188;-0.2297;0.3919;0.504
4.165000;0.2364;-0.1313;0.2433;0.364
4.170000;0.2349;-0.0609;0.0543;0.249
4.176000;0.1931;0.0367;-0.1560;0.251
4.180000;0.1709;0.1811;-0.3517;0.431
4.188000;0.1280;0.2842;-0.5351;0.619
4.192000;0.0645;0.4133;-0.6681;0.788
4.194000;-0.0148;0.4924;-0.7651;0.910
4.221000;-0.0551;0.5766;-0.8668;1.042
4.223000;-0.1018;0.6137;-0.9277;1.117
4.224000;-0.1025;0.6422;-0.9742;1.171
4.224000;-0.1074;0.6242;-1.0040;1.187
4.224000;-0.1525;0.5813;-0.9979;1.165
4.226000;-0.1038;0.5470;-0.9297;1.084
4.228000;-0.0763;0.4784;-0.8688;0.995
4.234000;-0.0914;0.4281;-0.7579;0.875
4.239000;-0.0682;0.3576;-0.6208;0.720
4.243000;-0.0283;0.2835;-0.5054;0.580
4.251000;-0.0194;0.2080;-0.3687;0.424
4.253000;-0.0155;0.1404;-0.2321;0.272
4.258000;-0.0213;0.0756;-0.1507;0.170
4.263000;-0.0295;0.0136;-0.0288;0.043
4.268000;-0.0258;0.0257;0.0524;0.064
4.273000;-0.0391;-0.0101;0.1382;0.144
4.277000;-0.0286;0.0065;0.1594;0.162
4.282000;-0.0398;0.0679;0.0253;0.083
4.287000;-0.0654;0.0620;0.3120;0.325
4.293000;-0.0675;0.0486;0.2231;0.238
4.298000;-0.0698;0.0971;0.1510;0.193
4.321000;-0.0555;0.1549;0.1699;0.237
4.322000;-0.0583;0.1864;0.1481;0.245
4.322000;-0.0565;0.2417;0.1359;0.283
4.323000;-0.0477;0.2565;0.1380;0.295
4.323000;-0.0082;0.3001;0.1545;0.338
4.329000;0.0026;0.3342;0.1734;0.377
4.332000;0.0108;0.3563;0.1970;0.407
4.340000;0.0002;0.3544;0.2134;0.414
4.342000;-0.0221;0.3882;0.2226;0.448
4.346000;-0.0133;0.3982;0.2629;0.477
4.351000;-0.0664;0.4032;0.2386;0.473
4.357000;-0.0907;0.4464;0.2980;0.544
4.361000;-0.1171;0.4846;0.2905;0.577
4.369000;-0.1340;0.5059;0.3235;0.615
4.373000;-0.1486;0.5724;0.3255;0.675
4.375000;-0.1967;0.5767;0.3179;0.687
4.380000;-0.2308;0.6167;0.3151;0.730
4.403000;-0.2817;0.6304;0.3170;0.760
4.404000;-0.3542;0.6513;0.2880;0.795
4.404000;-0.4363;0.6845;0.2923;0.863
4.405000;-0.4894;0.7128;0.3182;0.921
4.406000;-0.5160;0.7410;0.3417;0.965
4.410000;-0.5615;0.7523;0.3747;1.011
4.414000;-0.5945;0.7279;0.4531;1.043
4.421000;-0.6080;0.7818;0.4956;1.107
4.424000;-0.6022;0.8232;0.5093;1.140
4.429000;-0.6437;0.8232;0.4609;1.142
4.435000;-0.6778;0.8586;0.4341;1.177
4.440000;-0.7235;0.8648;0.3667;1.186
4.444000;-0.7259;0.8874;0.2922;1.183
4.449000;-0.7497;0.9508;0.2608;1.239
4.453000;-0.7973;0.9400;0.1626;1.243
4.459000;-0.8378;0.9967;0.1099;1.307
4.464000;-0.8927;0.9965;0.0572;1.339
4.469000;-0.9644;1.0040;0.0500;1.393
4.475000;-1.0481;1.0267;0.0381;1.468
4.478000;-1.1224;1.0382;0.0405;1.530
4.486000;-1.1395;0.9671;0.0811;1.497
4.489000;-1.1570;0.9543;0.1384;1.506
4.494000;-1.1678;0.9325;0.1836;1.506
4.498000;-1.1627;0.8994;0.2432;1.490
4.503000;-1.1489;0.8762;0.2596;1.468
4.508000;-1.0116;0.8461;0.2617;1.344
4.513000;-0.8940;0.7752;0.2900;1.218
4.518000;-0.7912;0.7256;0.3350;1.125
4.522000;-0.6937;0.6635;0.4039;1.041
4.528000;-0.5636;0.6125;0.4345;0.939
4.532000;-0.4848;0.6057;0.4028;0.874
4.537000;-0.3778;0.6309;0.3353;0.808
4.542000;-0.2790;0.6424;0.1556;0.717
4.547000;-0.2669;0.6787;-0.0287;0.730
4.552000;-0.2695;0.7474;-0.2558;0.835
4.557000;-0.2532;0.7984;-0.4659;0.958
4.562000;-0.2682;0.8777;-0.6543;1.127
4.569000;-0.2163;0.9475;-0.8519;1.292
4.572000;-0.2290;0.9795;-1.0063;1.423
4.576000;-0.2415;1.0406;-1.1007;1.534
4.581000;-0.2180;1.0617;-1.1233;1.561
4.598000;-0.2158;1.0740;-1.1531;1.590
4.599000;-0.2135;1.0848;-1.1493;1.595
4.600000;-0.2276;1.0537;-1.1503;1.576
4.603000;-0.1961;1.0090;-1.0892;1.498
4.608000;-0.1810;0.9650;-0.9947;1.398
4.611000;-0.1559;0.9123;-0.8548;1.260
4.615000;-0.1062;0.8573;-0.7463;1.142
4.624000;-0.0707;0.8096;-0.5971;1.008
4.625000;-0.0395;0.7183;-0.5175;0.886
4.630000;-0.0201;0.6981;-0.4786;0.847
4.636000;0.0117;0.6676;-0.4135;0.785
4.640000;0.0318;0.6627;-0.4512;0.802
4.645000;-0.0150;0.6977;-0.4530;0.832
4.649000;-0.0183;0.7199;-0.4788;0.865
4.655000;-0.0428;0.7608;-0.5427;0.935
4.660000;-0.0767;0.8395;-0.5779;1.022
4.665000;-0.1105;0.9203;-0.6225;1.117
4.671000;-0.1132;1.0103;-0.6576;1.211
4.674000;-0.1065;1.0837;-0.6807;1.284
4.679000;-0.1141;1.1524;-0.7300;1.369
4.710000;-0.1293;1.2213;-0.7674;1.448
4.710000;-0.0992;1.2715;-0.7736;1.492
4.711000;-0.1005;1.3364;-0.8061;1.564
4.711000;-0.0661;1.3731;-0.8218;1.602
4.712000;-0.0318;1.4249;-0.7801;1.625
4.712000;0.0263;1.4222;-0.7552;1.611
4.713000;0.0745;1.4275;-0.6826;1.584
4.721000;0.1014;1.4475;-0.6315;1.583
4.723000;0.1330;1.4705;-0.5351;1.571
4.731000;0.1981;1.5083;-0.4866;1.597
4.733000;0.2346;1.5078;-0.4357;1.587
4.738000;0.3023;1.5292;-0.3873;1.606
4.743000;0.3556;1.5506;-0.3390;1.627
4.748000;0.4136;1.5459;-0.2931;1.627
4.753000;0.4192;1.5439;-0.1899;1.611
4.758000;0.4008;1.5634;-0.1203;1.618
4.763000;0.4085;1.5881;-0.0029;1.640
4.770000;0.4159;1.6032;0.0832;1.658
4.772000;0.4037;1.6015;0.2003;1.664
4.778000;0.3890;1.6139;0.2861;1.685
4.782000;0.4075;1.6259;0.3910;1.721
4.798000;0.4188;1.6324;0.4719;1.750
4.799000;0.4419;1.6408;0.5192;1.777
4.799000;0.4746;1.6483;0.5735;1.809
4.807000;0.4976;1.6670;0.5991;1.840
4.808000;0.4775;1.6441;0.5936;1.812
4.811000;0.4886;1.6637;0.6192;1.841
4.816000;0.5045;1.6373;0.6543;1.834
4.822000;0.5493;1.6465;0.7085;1.875
4.826000;0.5605;1.6550;0.7554;1.904
4.831000;0.5955;1.6174;0.8739;1.932
4.836000;0.6232;1.5814;0.9110;1.929
4.841000;0.6269;1.5492;0.9266;1.911
4.846000;0.6041;1.5302;0.9516;1.901
4.851000;0.6123;1.5411;0.9169;1.895
4.856000;0.6086;1.5531;0.8990;1.895
4.861000;0.5525;1.5351;0.8523;1.841
4.865000;0.4847;1.5089;0.8703;1.808
4.871000;0.4367;1.5100;0.8978;1.810
4.875000;0.4272;1.4548;0.9778;1.804
4.880000;0.3968;1.3957;1.0290;1.779
4.901000;0.3783;1.3776;1.0611;1.780
4.903000;0.3594;1.2949;1.0668;1.716
4.904000;0.3086;1.2482;0.9698;1.611
4.904000;0.1615;1.2182;0.8013;1.467
4.904000;0.0214;1.1839;0.6091;1.332
4.909000;-0.0446;1.1818;0.3503;1.233
4.914000;-0.0648;1.2345;0.1110;1.241
4.920000;-0.1083;1.2324;-0.1208;1.243
4.924000;-0.1341;1.1673;-0.3139;1.216
4.931000;-0.1367;1.0711;-0.4495;1.170
4.934000;-0.1375;0.9089;-0.4582;1.027
4.939000;-0.0743;0.7147;-0.4024;0.824
4.944000;-0.0524;0.5034;-0.2297;0.556
4.948000;-0.0410;0.3419;0.0814;0.354
4.954000;-0.0119;0.1751;0.4279;0.462
4.958000;-0.0277;0.0596;0.6878;0.691
4.963000;-0.0510;-0.0750;1.2079;1.211
4.971000;-0.0224;-0.2006;1.6293;1.642
4.973000;-0.0166;-0.2752;2.0047;2.024
4.978000;0.0109;-0.3857;2.2913;2.324
4.982000;0.0575;-0.4778;2.5035;2.549
5.002000;0.0990;-0.6022;2.5911;2.662
5.003000;0.1455;-0.6328;2.5615;2.642
5.004000;0.1615;-0.6508;2.4364;2.527
5.004000;0.1190;-0.6205;2.2732;2.359
5.007000;0.0476;-0.6014;2.0338;2.121
5.012000;0.0078;-0.5425;1.8377;1.916
5.017000;-0.0479;-0.5104;1.7041;1.780
5.023000;-0.1141;-0.5334;1.6446;1.733
5.027000;-0.1784;-0.5132;1.6450;1.732
5.032000;-0.2385;-0.5239;1.7124;1.807
5.037000;-0.2992;-0.5512;1.8609;1.964
5.041000;-0.2823;-0.6142;2.0187;2.129
5.047000;-0.2173;-0.6872;2.1453;2.263
5.051000;-0.1290;-0.8159;2.2599;2.406
5.056000;-0.0299;-0.9167;2.2691;2.447
5.062000;0.0510;-1.0042;2.1613;2.384
5.066000;0.1180;-1.0452;2.0345;2.290
5.071000;0.1951;-1.0845;1.8457;2.150
5.076000;0.2557;-1.0504;1.6405;1.965
5.081000;0.3455;-1.0548;1.3854;1.775
5.094000;0.4598;-0.9875;1.1975;1.619
5.096000;0.5489;-0.9295;0.9908;1.465
5.097000;0.6321;-0.8741;0.7676;1.324
5.100000;0.6765;-0.8237;0.5686;1.208
5.105000;0.7018;-0.7351;0.3627;1.079
5.140000;0.7278;-0.7185;0.1667;1.036
5.141000;0.7022;-0.6589;0.0282;0.963
5.142000;0.7138;-0.5870;-0.1028;0.930
5.143000;0.7053;-0.5797;-0.2170;0.938
5.143000;0.7058;-0.5313;-0.2976;0.932
5.143000;0.6958;-0.5280;-0.3734;0.950
5.144000;0.6709;-0.5147;-0.4299;0.949
5.145000;0.6715;-0.5012;-0.4888;0.970
5.149000;0.6282;-0.5515;-0.4879;0.968
5.154000;0.6463;-0.5630;-0.4608;0.973
5.160000;0.6513;-0.5739;-0.4456;0.976
5.164000;0.6741;-0.6155;-0.4258;1.007
5.171000;0.6713;-0.6041;-0.3868;0.982
5.174000;0.6882;-0.6285;-0.3981;1.014
5.179000;0.6985;-0.6456;-0.4428;1.049
5.183000;0.6853;-0.6532;-0.4660;1.055
5.191000;0.6555;-0.6630;-0.5417;1.078
5.193000;0.5590;-0.7013;-0.5839;1.070
5.198000;0.4745;-0.7125;-0.6523;1.076
5.215000;0.3851;-0.7020;-0.7446;1.093
5.216000;0.2476;-0.6644;-0.8056;1.073
5.216000;0.1261;-0.6189;-0.8834;1.086
5.218000;0.0301;-0.5963;-0.9085;1.087
5.224000;-0.0575;-0.5967;-0.9503;1.124
5.228000;-0.1012;-0.5724;-0.9802;1.140
5.233000;-0.0917;-0.5499;-1.0411;1.181
5.238000;-0.0696;-0.5320;-1.1092;1.232
5.242000;-0.0993;-0.4970;-1.2249;1.326
5.251000;-0.1063;-0.4527;-1.3500;1.428
5.253000;-0.0925;-0.3871;-1.4559;1.509
5.257000;-0.0673;-0.3597;-1.5305;1.574
5.262000;-0.0161;-0.2920;-1.5764;1.603
5.267000;0.0494;-0.2532;-1.6341;1.654
5.272000;0.0883;-0.1550;-1.7180;1.727
5.277000;0.1847;-0.0647;-1.7373;1.748
5.282000;0.2243;0.0149;-1.7685;1.783
5.290000;0.3006;0.1315;-1.8354;1.864
5.291000;0.3155;0.2397;-1.9715;2.011
5.296000;0.3885;0.3301;-2.1170;2.177
5.301000;0.3953;0.4035;-2.2383;2.308
5.322000;0.3724;0.4502;-2.3524;2.424
5.323000;0.3605;0.4901;-2.4113;2.487
5.323000;0.3191;0.5471;-2.4775;2.557
5.324000;0.2790;0.5786;-2.4599;2.542
5.325000;0.1946;0.6307;-2.4137;2.502
5.331000;0.1401;0.6553;-2.3152;2.410
5.335000;0.0815;0.6648;-2.2311;2.329
5.340000;0.0690;0.6829;-2.1233;2.232
5.346000;0.0763;0.6642;-1.9608;2.072
5.350000;0.0315;0.6423;-1.7985;1.910
5.355000;0.0279;0.6456;-1.6126;1.737
5.361000;0.0100;0.6787;-1.3983;1.554
5.365000;-0.0365;0.7152;-1.1747;1.376
5.374000;-0.0641;0.7621;-0.9706;1.236
5.379000;-0.0680;0.7663;-0.7117;1.048
5.380000;-0.0602;0.7683;-0.4627;0.899
5.384000;-0.0360;0.7389;-0.2069;0.768
5.410000;0.0429;0.6467;0.0009;0.648
5.411000;0.1598;0.5916;0.1751;0.637
5.411000;0.2573;0.5349;0.2893;0.660
5.412000;0.3834;0.4452;0.3462;0.682
5.412000;0.4522;0.4129;0.3529;0.707
5.414000;0.5071;0.3809;0.3262;0.713
5.420000;0.5339;0.3776;0.2184;0.689
5.426000;0.5351;0.3702;0.1299;0.663
5.428000;0.5276;0.3518;0.0798;0.639
5.434000;0.4802;0.3778;0.0227;0.611
5.439000;0.4454;0.3932;-0.0176;0.594
5.444000;0.4036;0.4104;-0.0529;0.578
5.448000;0.3330;0.4488;-0.0787;0.564
5.454000;0.3024;0.4683;-0.0853;0.564
5.459000;0.2754;0.4949;-0.0679;0.570
5.463000;0.3019;0.5244;-0.1009;0.613
5.469000;0.3362;0.5161;-0.0979;0.624
5.474000;0.3660;0.5275;-0.0902;0.648
5.478000;0.4179;0.5488;-0.1041;0.698
5.483000;0.4775;0.5537;-0.1180;0.741
5.491000;0.4734;0.6064;-0.2012;0.795
5.493000;0.4731;0.6541;-0.3321;0.873
5.497000;0.4412;0.7208;-0.3601;0.919
5.502000;0.4334;0.7947;-0.4406;1.007
5.526000;0.3568;0.8184;-0.4971;1.022
5.527000;0.3244;0.8401;-0.5511;1.056
5.528000;0.2722;0.8691;-0.5118;1.045
5.528000;0.1933;0.8577;-0.4487;0.987
5.529000;0.1643;0.8633;-0.3761;0.956
5.531000;0.1088;0.8311;-0.3012;0.891
5.537000;0.0743;0.7756;-0.1619;0.796
5.541000;0.0510;0.6728;-0.0107;0.675
5.546000;0.0506;0.5661;0.1306;0.583
5.551000;-0.0065;0.4409;0.2957;0.531
5.557000;-0.0251;0.3523;0.4630;0.582
5.561000;-0.0178;0.2405;0.5799;0.628
5.566000;0.0054;0.1558;0.7061;0.723
5.571000;0.0319;0.0194;0.7962;0.797
5.576000;0.0951;-0.0682;0.9101;0.918
5.580000;0.1537;-0.1622;1.0237;1.048
5.586000;0.2316;-0.2102;1.1013;1.145
5.592000;0.2688;-0.2363;1.2193;1.271
5.595000;0.3418;-0.1785;1.2295;1.289
5.600000;0.4508;-0.1043;1.2565;1.339
5.627000;0.5269;0.0101;1.2380;1.345
5.628000;0.5107;0.1378;1.1860;1.299
5.628000;0.5276;0.2333;1.2489;1.376
5.629000;0.5018;0.4331;0.7669;1.014
5.629000;0.4460;0.5245;0.7062;0.986
5.632000;0.3944;0.5509;0.5094;0.848
5.634000;0.2882;0.5893;0.2985;0.721
5.639000;0.1687;0.6071;0.1859;0.657
5.644000;0.0553;0.6404;0.1881;0.670
5.649000;-0.1407;0.6800;0.2573;0.741
5.655000;-0.2907;0.6954;0.3574;0.834
5.659000;-0.4480;0.6651;0.5242;0.958
5.664000;-0.5916;0.6014;0.7194;1.109
5.668000;-0.7129;0.5161;0.8809;1.245
5.673000;-0.8336;0.3471;1.0827;1.410
5.679000;-0.9810;0.2020;1.2866;1.630
5.683000;-1.0835;-0.0100;1.5092;1.858
5.691000;-1.1394;-0.2436;1.7745;2.123
5.693000;-1.0892;-0.4276;2.0801;2.387
5.697000;-0.9933;-0.6130;2.3278;2.604
5.703000;-0.9068;-0.7837;2.5705;2.836
5.722000;-0.7798;-0.9242;2.7387;2.994
5.723000;-0.6174;-1.0372;2.8327;3.079
5.724000;-0.4749;-1.0929;2.8214;3.063
5.724000;-0.3212;-1.1226;2.7169;2.957
5.727000;-0.2040;-1.0646;2.5361;2.758
5.732000;-0.0874;-0.9883;2.2360;2.446
5.738000;-0.0473;-0.8264;1.9244;2.095
5.742000;-0.0091;-0.6339;1.5463;1.671
5.747000;-0.0055;-0.4392;1.1782;1.257
5.751000;0.0115;-0.2611;0.8226;0.863
5.758000;-0.0098;-0.1255;0.4556;0.473
5.762000;-0.0426;0.0018;0.1010;0.110
5.767000;-0.0478;0.0905;-0.1527;0.184
5.772000;-0.0657;0.1719;-0.3797;0.422
5.777000;-0.0311;0.2181;-0.5227;0.567
5.782000;0.0060;0.2197;-0.6536;0.690
5.786000;0.0125;0.2036;-0.6767;0.707
5.791000;-0.0401;0.0955;-0.6161;0.625
5.796000;-0.1402;0.0149;-0.5508;0.569
5.801000;-0.2996;-0.0811;-0.4281;0.529
5.830000;-0.4660;-0.1688;-0.2721;0.565
5.831000;-0.6446;-0.2554;-0.0996;0.700
5.832000;-0.8187;-0.3263;0.0561;0.883
5.832000;-0.9506;-0.4153;0.1901;1.055
5.833000;-1.0481;-0.5152;0.3526;1.220
5.833000;-1.1277;-0.6379;0.5340;1.401
5.835000;-1.1756;-0.7616;0.7511;1.589
5.841000;-1.2116;-0.8774;0.9966;1.798
5.845000;-1.1597;-0.9619;1.2634;1.966
5.852000;-1.0633;-1.0706;1.5656;2.174
5.855000;-0.8895;-1.1850;1.8579;2.376
5.860000;-0.7418;-1.3040;2.0710;2.557
5.865000;-0.5467;-1.4139;2.1930;2.666
5.869000;-0.4314;-1.4512;2.1594;2.637
5.875000;-0.2792;-1.4258;2.0517;2.514
5.879000;-0.1593;-1.3864;1.7506;2.239
5.884000;-0.0953;-1.2753;1.3255;1.842
5.904000;-0.0508;-1.1496;0.7838;1.392
5.905000;-0.0182;-0.9944;0.1999;1.014
5.905000;-0.0139;-0.7868;-0.3570;0.864
5.905000;-0.0115;-0.5837;-0.9131;1.084
5.911000;-0.0081;-0.3933;-1.3895;1.444
5.914000;0.0080;-0.2010;-1.8295;1.841
5.919000;-0.0223;0.0253;-2.2426;2.243
5.923000;-0.0658;0.1810;-2.5979;2.605
5.931000;-0.1145;0.3743;-2.9048;2.931
5.933000;-0.1252;0.5551;-3.1398;3.191
5.943000;-0.1596;0.6547;-3.2741;3.343
5.944000;-0.1914;0.7258;-3.3437;3.427
5.951000;-0.1864;0.7546;-3.3130;3.403
5.953000;-0.2309;0.7265;-3.2633;3.351
5.958000;-0.2739;0.6175;-3.2065;3.277
5.962000;-0.2335;0.5251;-3.0472;3.101
5.967000;-0.1528;0.4948;-2.8259;2.873
5.974000;-0.1045;0.4828;-2.6337;2.680
5.977000;-0.0812;0.4314;-2.4058;2.446
5.982000;-0.0425;0.3499;-2.2357;2.263
5.987000;0.0354;0.2526;-2.0969;2.112
5.999000;0.0613;0.1727;-1.9200;1.929
6.000000;0.0637;0.0600;-1.8102;1.812
6.004000;0.0929;-0.0210;-1.7150;1.718
6.009000;0.1342;-0.0656;-1.6175;1.624
6.013000;0.1708;-0.0956;-1.4963;1.509
6.016000;0.1595;-0.1158;-1.3990;1.413
6.023000;0.1483;-0.1337;-1.3187;1.334
6.027000;0.1321;-0.1442;-1.2337;1.249
6.031000;0.1349;-0.1500;-1.1607;1.178
6.036000;0.1373;-0.1656;-1.1188;1.139
6.042000;0.1654;-0.1671;-1.1129;1.137
6.046000;0.1906;-0.1759;-1.1236;1.153
6.052000;0.2438;-0.1896;-1.1248;1.166
6.056000;0.2371;-0.2056;-1.1307;1.173
6.060000;0.2614;-0.2238;-1.0936;1.146
6.066000;0.2713;-0.2347;-1.0351;1.096
6.070000;0.1906;-0.1932;-0.9671;1.004
6.076000;0.1748;-0.1616;-0.8752;0.907
6.080000;0.1427;-0.1068;-0.8312;0.850
6.085000;0.0755;-0.0862;-0.7991;0.807
6.093000;-0.0268;-0.0689;-0.7933;0.797
6.097000;-0.1375;-0.0069;-0.8019;0.814
6.100000;-0.2520;0.0591;-0.7578;0.801
6.105000;-0.3441;0.1223;-0.7066;0.795
6.126000;-0.4092;0.2255;-0.6410;0.793
6.126000;-0.4835;0.2494;-0.5947;0.806
6.127000;-0.4644;0.2942;-0.5819;0.800
6.127000;-0.4717;0.3481;-0.5905;0.832
6.129000;-0.4505;0.3441;-0.6158;0.837
6.134000;-0.3983;0.3277;-0.6387;0.821
6.139000;-0.3489;0.3303;-0.6544;0.812
6.144000;-0.2924;0.3426;-0.6557;0.796
6.148000;-0.2505;0.3526;-0.6475;0.779
6.153000;-0.2115;0.3673;-0.6010;0.735
6.159000;-0.1725;0.3726;-0.5618;0.696
6.164000;-0.1143;0.3731;-0.4915;0.628
6.169000;-0.0372;0.3853;-0.4261;0.576
6.173000;0.0424;0.4045;-0.3942;0.566
6.178000;0.0292;0.4493;-0.3934;0.598
6.183000;0.0147;0.4650;-0.4021;0.615
6.193000;-0.0032;0.5063;-0.3870;0.637
6.194000;-0.0479;0.5186;-0.3096;0.606
6.197000;-0.0789;0.5426;-0.1750;0.576
6.208000;-0.1272;0.5234;-0.0502;0.541
6.228000;-0.1882;0.4753;0.0913;0.519
6.229000;-0.2644;0.4008;0.1991;0.520
6.229000;-0.3680;0.3211;0.3570;0.605
6.230000;-0.4636;0.2415;0.4525;0.691
6.230000;-0.5349;0.1453;0.6006;0.817
6.232000;-0.5253;0.0446;0.7341;0.904
6.236000;-0.4740;-0.0725;0.9057;1.025
6.243000;-0.4077;-0.1390;1.0293;1.116
6.246000;-0.2982;-0.1863;1.1647;1.217
6.251000;-0.1725;-0.1954;1.2450;1.272
6.257000;-0.0807;-0.1422;1.2415;1.252
6.261000;0.0273;-0.1607;1.1974;1.208
6.266000;0.1665;-0.2080;1.0984;1.130
6.271000;0.1940;-0.3290;1.0354;1.104
6.276000;0.1725;-0.3945;1.0107;1.099
6.282000;0.2577;-0.4449;0.9000;1.037
6.286000;0.3252;-0.5020;0.9973;1.163
6.292000;0.4024;-0.5435;1.0227;1.226
6.297000;0.4078;-0.5507;0.7780;1.037
6.300000;0.4457;-0.5347;0.7199;1.001
6.306000;0.3398;-0.7435;0.7549;1.113
6.326000;0.2132;-0.8320;0.5529;1.021
6.327000;0.2743;-0.9263;0.8074;1.259
6.327000;0.2731;-1.1217;1.1114;1.603
6.327000;0.1239;-1.4326;1.5558;2.119
6.329000;0.0697;-1.7451;2.0878;2.722
6.335000;0.0125;-2.0481;2.6573;3.355
6.340000;-0.0462;-2.2574;3.2141;3.928
6.344000;-0.1137;-2.3909;3.7011;4.408
6.350000;-0.1218;-2.4483;4.0588;4.742
6.354000;-0.1979;-2.3902;4.3063;4.929
6.359000;-0.2498;-2.3013;4.3460;4.924
6.365000;-0.3192;-2.1866;4.1566;4.708
6.369000;-0.3353;-2.0316;3.7910;4.314
6.377000;-0.2892;-1.8309;3.2085;3.705
6.380000;-0.2865;-1.5715;2.5577;3.016
6.383000;-0.2887;-1.2974;1.8816;2.304
6.406000;-0.2884;-1.0404;1.2134;1.624
6.407000;-0.2901;-0.8162;0.6583;1.088
6.408000;-0.3530;-0.5850;0.2257;0.720
6.408000;-0.4982;-0.3706;-0.1086;0.630
6.409000;-0.5509;-0.1743;-0.3901;0.697
6.413000;-0.6186;-0.0486;-0.6285;0.883
6.418000;-0.6390;0.0667;-0.7736;1.006
6.424000;-0.7553;0.1026;-0.8257;1.124
6.431000;-0.8526;0.0707;-0.8372;1.197
6.434000;-0.8827;-0.0098;-0.7342;1.148
6.438000;-0.8654;-0.0895;-0.5909;1.052
6.443000;-0.8319;-0.1947;-0.4168;0.951
6.448000;-0.7156;-0.3290;-0.2287;0.820
6.452000;-0.6942;-0.4738;-0.1053;0.847
6.458000;-0.6868;-0.5221;0.0083;0.863
6.462000;-0.5900;-0.6104;0.0382;0.850
6.467000;-0.5095;-0.6467;0.0251;0.824
6.472000;-0.4647;-0.7095;-0.0382;0.849
6.476000;-0.3505;-0.7323;-0.1468;0.825
6.482000;-0.2721;-0.7622;-0.2074;0.835
6.486000;-0.1002;-0.7903;-0.2822;0.845
6.493000;0.0452;-0.8595;-0.3545;0.931
6.496000;0.1696;-0.8530;-0.4434;0.976
6.501000;0.2609;-0.7878;-0.5536;0.998
6.519000;0.3051;-0.7055;-0.6708;1.020
6.520000;0.3337;-0.6128;-0.7782;1.045
6.521000;0.3426;-0.5032;-0.9499;1.128
6.521000;0.3726;-0.3716;-1.0735;1.196
6.529000;0.3569;-0.2279;-1.2111;1.283
6.530000;0.3608;-0.1129;-1.2912;1.345
6.536000;0.3134;0.0400;-1.3615;1.398
6.541000;0.2673;0.1876;-1.5058;1.541
6.546000;0.2250;0.3301;-1.6617;1.709
6.551000;0.2178;0.4345;-1.8796;1.941
6.555000;0.1671;0.5562;-2.0900;2.169
6.560000;0.1760;0.6480;-2.2403;2.339
6.567000;0.1155;0.7776;-2.3689;2.496
6.570000;-0.0358;0.8452;-2.4281;2.571
6.578000;-0.0966;0.9066;-2.3940;2.562
6.580000;-0.1913;0.9312;-2.2930;2.482
6.585000;-0.2820;0.9549;-2.1038;2.328
6.613000;-0.3668;0.9564;-1.8264;2.094
6.614000;-0.4766;0.9592;-1.5660;1.897
6.615000;-0.5615;0.9153;-1.3012;1.687
6.615000;-0.6165;0.8551;-1.0582;1.494
6.616000;-0.6534;0.7809;-0.8012;1.296
6.616000;-0.6654;0.7019;-0.5326;1.104
6.619000;-0.6476;0.6011;-0.2452;0.917
6.624000;-0.5882;0.4423;-0.0178;0.736
6.629000;-0.5089;0.3183;0.1830;0.627
6.634000;-0.4722;0.2218;0.3859;0.649
6.638000;-0.4022;0.1379;0.4835;0.644
6.643000;-0.3661;0.1405;0.5451;0.672
6.648000;-0.2354;0.1720;0.5182;0.595
6.653000;-0.1635;0.2136;0.3862;0.471
6.659000;-0.1196;0.2727;0.2304;0.376
6.662000;-0.1254;0.3473;0.0485;0.372
6.671000;-0.1039;0.3569;-0.1690;0.408
6.673000;-0.0479;0.3740;-0.3599;0.521
6.678000;-0.0002;0.4230;-0.5028;0.657
6.683000;0.0345;0.4538;-0.5691;0.729
6.687000;0.0280;0.4954;-0.6018;0.780
6.694000;0.0232;0.5355;-0.5987;0.804
6.697000;-0.0229;0.6101;-0.5956;0.853
6.702000;-0.1028;0.6569;-0.5566;0.867
6.724000;-0.1208;0.6926;-0.4652;0.843
6.724000;-0.1006;0.6907;-0.3810;0.795
6.725000;-0.0804;0.6773;-0.2348;0.721
6.725000;-0.0243;0.6184;-0.0983;0.627
6.728000;0.0201;0.5473;0.0213;0.548
6.731000;0.0980;0.4945;0.0810;0.511
6.736000;0.1663;0.4648;0.1430;0.514
6.741000;0.2680;0.3934;0.1834;0.510
6.746000;0.3316;0.3952;0.1856;0.548
6.751000;0.3854;0.3718;0.2021;0.572
6.756000;0.4197;0.3785;0.2042;0.601
6.761000;0.4823;0.3769;0.2016;0.644
6.766000;0.4918;0.3719;0.1918;0.646
6.771000;0.4912;0.3802;0.1534;0.640
6.778000;0.5193;0.4066;0.0816;0.665
6.783000;0.4780;0.4348;0.0290;0.647
6.785000;0.4368;0.4839;-0.0426;0.653
6.812000;0.3675;0.5808;-0.0998;0.695
6.814000;0.3179;0.6230;-0.0900;0.705
6.814000;0.2237;0.6418;-0.0826;0.685
6.815000;0.1735;0.6326;0.0348;0.657
6.815000;0.1169;0.5811;0.1352;0.608
6.815000;0.1161;0.5158;0.3001;0.608
6.820000;0.1448;0.4221;0.5126;0.680
6.825000;0.1503;0.3426;0.6793;0.776
6.829000;0.1440;0.2629;0.7527;0.810
6.835000;0.1499;0.1303;0.8045;0.829
6.839000;0.0989;0.0382;0.8659;0.872
6.846000;0.0987;-0.0660;0.9247;0.932
6.849000;0.1154;-0.1389;0.9883;1.005
6.854000;0.0915;-0.2021;1.0876;1.110
6.859000;0.1154;-0.2749;1.1749;1.212
6.864000;0.1222;-0.2616;1.3625;1.393
6.869000;0.1859;-0.2010;1.5283;1.553
6.873000;0.2819;-0.0744;1.6725;1.698
6.878000;0.3742;0.0746;1.7089;1.751
6.883000;0.4650;0.1913;1.6116;1.688
6.888000;0.5666;0.2613;1.4260;1.556
6.913000;0.6534;0.2878;1.1665;1.368
6.915000;0.7022;0.2378;0.8692;1.142
6.915000;0.7233;0.1507;0.6057;0.955
6.916000;0.6414;0.1158;0.4404;0.787
6.916000;0.4760;0.0743;0.3804;0.614
6.918000;0.3324;-0.0018;0.4088;0.527
6.923000;0.2417;-0.1190;0.5541;0.616
6.928000;0.1006;-0.2315;0.7851;0.825
6.932000;-0.0315;-0.3923;1.1232;1.190
6.937000;-0.2528;-0.5921;1.4344;1.572
6.942000;-0.3387;-0.8772;1.7548;1.991
6.947000;-0.4208;-1.1382;1.9935;2.334
6.952000;-0.4107;-1.4695;2.5498;2.971
6.957000;-0.3728;-1.7142;2.6586;3.185
6.963000;-0.2957;-1.9308;3.1043;3.668
6.966000;-0.2157;-2.0917;3.5042;4.087
6.972000;-0.1075;-2.1507;3.7771;4.348
6.977000;0.0039;-2.1375;3.9159;4.461
6.981000;0.1003;-2.0846;3.8778;4.404
6.986000;0.0950;-1.9231;3.6582;4.134
6.994000;0.0619;-1.7148;3.2334;3.661
6.996000;0.0724;-1.4832;2.6180;3.010
7.001000;-0.0196;-1.2223;2.0320;2.371
7.006000;-0.0309;-0.9336;1.4611;1.734
7.022000;0.0026;-0.6469;0.8814;1.093
7.024000;-0.0319;-0.3902;0.3144;0.502
7.024000;-0.0475;-0.1790;-0.2710;0.328
7.026000;-0.1270;0.0541;-0.7576;0.770
7.033000;-0.2072;0.2033;-1.2342;1.268
7.036000;-0.3308;0.3126;-1.6050;1.668
7.040000;-0.4558;0.3778;-1.7748;1.871
7.045000;-0.5868;0.3774;-1.9731;2.093
7.050000;-0.6920;0.3261;-2.0327;2.172
7.054000;-0.8116;0.2337;-1.9967;2.168
7.060000;-0.9592;0.0808;-1.8534;2.089
7.064000;-1.1082;-0.0825;-1.5933;1.943
7.069000;-1.2105;-0.2878;-1.1903;1.722
7.074000;-1.3068;-0.4566;-0.6539;1.531
7.079000;-1.2830;-0.6431;-0.1111;1.439
7.084000;-1.2307;-0.8319;0.2996;1.515
7.091000;-1.1027;-1.0526;0.6693;1.665
7.104000;-0.9187;-1.2201;0.8929;1.769
7.104000;-0.7489;-1.4116;1.0590;1.917
7.105000;-0.5437;-1.5340;1.1150;1.973
7.114000;-0.3043;-1.6376;1.1018;1.997
7.115000;-0.0795;-1.6793;0.9643;1.938
7.118000;0.0868;-1.6444;0.8247;1.842
7.124000;0.2708;-1.6355;0.5179;1.737
7.128000;0.3524;-1.6377;0.1948;1.686
7.133000;0.3965;-1.5403;-0.1065;1.594
7.138000;0.4081;-1.3550;-0.4719;1.492
7.144000;0.3777;-1.1650;-0.8226;1.475
7.151000;0.3134;-0.9507;-1.1490;1.524
7.152000;0.2514;-0.7572;-1.4056;1.616
7.157000;0.1976;-0.5961;-1.6118;1.730
7.162000;0.1167;-0.4675;-1.7317;1.797
7.167000;0.0215;-0.3786;-1.7988;1.838
7.173000;-0.0640;-0.2650;-1.8348;1.855
7.179000;-0.1296;-0.2081;-1.8683;1.884
7.182000;-0.1514;-0.1458;-1.8515;1.863
7.187000;-0.1651;-0.0926;-1.8276;1.837
7.192000;-0.1662;-0.0317;-1.7679;1.776
7.216000;-0.1737;-0.0349;-1.6699;1.679
7.217000;-0.1612;-0.0283;-1.5626;1.571
7.217000;-0.1044;-0.0340;-1.4696;1.474
7.218000;-0.0442;-0.0283;-1.3815;1.383
7.218000;0.0220;-0.0452;-1.3891;1.390
7.221000;0.0653;-0.0606;-1.3560;1.359
7.231000;0.0861;-0.0509;-1.4185;1.422
7.232000;0.0988;-0.0184;-1.4642;1.468
7.236000;0.0818;0.0110;-1.5026;1.505
7.241000;0.0730;0.0544;-1.5888;1.591
7.248000;0.0412;0.1001;-1.6653;1.669
7.250000;0.0032;0.1582;-1.7227;1.730
7.256000;-0.0438;0.1453;-1.7871;1.794
7.260000;-0.0757;0.1668;-1.7608;1.770
7.266000;-0.0975;0.2087;-1.7584;1.773
7.271000;-0.1522;0.2519;-1.7179;1.743
7.275000;-0.1897;0.2485;-1.6822;1.711
7.280000;-0.2195;0.2300;-1.6156;1.647
7.284000;-0.2204;0.1962;-1.5061;1.535
7.289000;-0.2307;0.2091;-1.3658;1.401
7.314000;-0.2575;0.1611;-1.2065;1.244
7.315000;-0.2648;0.1140;-1.0403;1.080
7.315000;-0.2338;0.0916;-0.8863;0.921
7.315000;-0.2482;0.0623;-0.7014;0.747
7.316000;-0.2146;-0.0341;-0.5311;0.574
7.320000;-0.1738;-0.0614;-0.3968;0.438
7.324000;-0.1424;-0.1183;-0.2770;0.333
7.333000;-0.1230;-0.1211;-0.2242;0.283
7.334000;-0.1058;-0.1514;-0.2025;0.274
7.339000;-0.1051;-0.1206;-0.1761;0.238
7.344000;-0.0851;-0.1149;-0.2165;0.259
7.352000;-0.1198;-0.0549;-0.2545;0.287
7.354000;-0.1804;-0.0340;-0.2853;0.339
7.359000;-0.2144;0.0319;-0.2850;0.358
7.365000;-0.2651;0.0688;-0.3300;0.429
7.368000;-0.3444;0.1106;-0.3177;0.481
7.373000;-0.3736;0.1451;-0.2695;0.483
7.379000;-0.4105;0.2085;-0.2691;0.533
7.383000;-0.4670;0.2552;-0.2019;0.569
7.390000;-0.5244;0.2850;-0.1872;0.626
7.415000;-0.5254;0.3053;-0.1343;0.622
7.416000;-0.5155;0.3210;-0.0480;0.609
7.416000;-0.4280;0.3486;0.0000;0.552
7.417000;-0.3539;0.3830;0.0648;0.525
7.417000;-0.2575;0.4000;0.0745;0.482
7.417000;-0.1383;0.4282;0.0700;0.455
7.422000;-0.0460;0.4195;0.0345;0.423
7.431000;0.0558;0.4337;-0.0201;0.438
7.432000;0.1319;0.4636;-0.0745;0.488
7.438000;0.1684;0.4592;-0.1337;0.507
7.442000;0.1443;0.4704;-0.1738;0.522
7.447000;0.1102;0.4975;-0.2090;0.551
7.451000;0.0426;0.5215;-0.2012;0.561
7.457000;-0.0109;0.5068;-0.1386;0.526
7.462000;-0.1271;0.5017;-0.0689;0.522
7.466000;-0.2059;0.4777;0.0580;0.523
7.471000;-0.2714;0.4659;0.2420;0.591
7.477000;-0.3095;0.3750;0.4473;0.661
7.482000;-0.3351;0.2649;0.5925;0.730
7.486000;-0.3675;0.1588;0.7209;0.825
7.491000;-0.3827;0.0594;0.7727;0.864
7.496000;-0.4525;-0.0718;0.8579;0.973
7.500000;-0.4720;-0.1579;0.9023;1.030
7.505000;-0.4150;-0.2634;0.9970;1.112
7.534000;-0.2704;-0.2833;1.1107;1.178
7.534000;-0.1103;-0.2511;1.1598;1.192
7.535000;0.0673;-0.1720;1.1803;1.195
7.535000;0.2364;-0.0961;1.1339;1.162
7.535000;0.3133;-0.0761;0.9993;1.050
7.536000;0.3608;-0.0662;0.8433;0.920
7.540000;0.3434;-0.0584;0.6900;0.773
7.545000;0.2471;-0.0718;0.4987;0.561
7.549000;0.0964;-0.1052;0.3863;0.412
7.554000;-0.0461;-0.1513;0.2764;0.318
7.559000;-0.1461;-0.2020;0.2692;0.367
7.564000;-0.1582;-0.2548;0.2906;0.418
7.569000;-0.1539;-0.3110;0.4143;0.540
7.574000;-0.1785;-0.3993;0.6309;0.768
7.580000;-0.1988;-0.5050;1.0094;1.146
7.583000;-0.0955;-0.7956;1.4374;1.646
7.588000;0.0278;-0.9969;1.8934;2.140
7.612000;0.0878;-1.1935;2.3846;2.668
7.612000;0.0867;-1.4561;2.8608;3.211
7.613000;0.0851;-1.8094;3.2121;3.688
7.614000;0.1496;-2.0894;3.4436;4.031
7.614000;0.2087;-2.2659;3.9570;4.565
7.618000;0.2356;-2.4142;3.8389;4.541
7.623000;0.2442;-2.4779;3.9387;4.660
7.628000;0.2241;-2.5265;4.0481;4.777
7.632000;0.1388;-2.4271;3.7562;4.474
7.638000;0.0875;-2.2126;3.3908;4.050
7.644000;-0.0050;-1.9474;2.9902;3.568
7.651000;-0.1412;-1.6641;2.3943;2.919
7.653000;-0.2880;-1.3737;1.7803;2.267
7.657000;-0.2950;-1.0178;1.1671;1.576
7.663000;-0.2939;-0.6840;0.5667;0.936
7.668000;-0.3329;-0.4096;0.0339;0.529
7.674000;-0.3233;-0.1700;-0.4934;0.614
7.679000;-0.2911;0.0621;-0.9987;1.042
7.682000;-0.2860;0.2536;-1.5105;1.558
7.686000;-0.3073;0.4723;-1.9574;2.037
7.691000;-0.3063;0.6375;-2.2988;2.405
7.707000;-0.2344;0.7232;-2.5634;2.674
7.707000;-0.2561;0.7829;-2.6965;2.820
7.708000;-0.2299;0.7827;-2.8226;2.938
7.711000;-0.2076;0.7156;-2.7838;2.882
7.716000;-0.1358;0.6934;-2.6759;2.768
7.721000;-0.0980;0.5987;-2.5086;2.581
7.725000;-0.0218;0.4449;-2.2532;2.297
7.730000;0.0188;0.3631;-1.9552;1.989
7.735000;0.1122;0.2134;-1.6313;1.649
7.741000;0.2152;0.0576;-1.2743;1.294
7.746000;0.2628;-0.1128;-0.9966;1.037
7.751000;0.3435;-0.3003;-0.7287;0.860
7.755000;0.4118;-0.4104;-0.5471;0.798
7.760000;0.4535;-0.5336;-0.3919;0.802
7.766000;0.4488;-0.6301;-0.2822;0.823
7.770000;0.4434;-0.6661;-0.1917;0.823
7.775000;0.3935;-0.6564;-0.0750;0.769
7.780000;0.3348;-0.6534;-0.0013;0.734
7.784000;0.3287;-0.6165;0.0341;0.700
7.789000;0.3077;-0.5624;0.0361;0.642
7.812000;0.2761;-0.5006;0.0167;0.572
7.812000;0.2028;-0.4664;-0.0409;0.510
7.812000;0.1520;-0.3834;-0.1390;0.435
7.813000;0.0926;-0.3298;-0.2418;0.419
7.814000;0.0244;-0.2339;-0.2918;0.375
7.819000;-0.0024;-0.1528;-0.3130;0.348
7.823000;0.0124;-0.0794;-0.3580;0.367
7.831000;0.0375;-0.0329;-0.4317;0.435
7.833000;0.0423;0.0345;-0.5077;0.511
7.838000;0.0775;0.0819;-0.6193;0.630
7.843000;0.0669;0.1335;-0.7500;0.765
7.848000;0.0732;0.1364;-0.8661;0.880
7.853000;0.0395;0.1605;-0.9032;0.918
7.858000;0.0571;0.2223;-0.8830;0.912
7.863000;0.0518;0.2380;-0.8412;0.876
7.870000;0.0690;0.2817;-0.8498;0.898
7.872000;0.0416;0.3295;-0.8607;0.923
7.877000;0.0197;0.3692;-0.8907;0.964
7.883000;0.0058;0.3558;-0.9350;1.000
7.889000;-0.0026;0.3539;-0.9458;1.010
7.892000;-0.0439;0.3569;-0.9686;1.033
7.920000;-0.0753;0.3458;-0.9340;0.999
7.921000;-0.1067;0.3540;-0.8611;0.937
7.922000;-0.1571;0.3314;-0.7788;0.861
7.922000;-0.1551;0.3352;-0.6990;0.791
7.922000;-0.1389;0.3152;-0.6361;0.723
7.923000;-0.1347;0.2690;-0.5851;0.658
7.926000;-0.1235;0.2012;-0.5390;0.588
7.932000;-0.1267;0.1693;-0.5192;0.561
7.936000;-0.1134;0.1230;-0.4899;0.518
7.941000;-0.0836;0.1031;-0.4774;0.495
7.946000;-0.0611;0.0571;-0.4338;0.442
7.951000;-0.0294;0.0378;-0.3663;0.369
7.956000;0.0087;0.0231;-0.3037;0.305
7.961000;0.0508;0.0015;-0.2723;0.277
7.965000;0.0801;-0.0009;-0.2194;0.234
7.970000;0.0938;0.0013;-0.2167;0.236
7.975000;0.1376;0.0033;-0.2164;0.256
7.981000;0.1489;0.0244;-0.2066;0.256
7.986000;0.1663;0.0884;-0.2278;0.296
7.991000;0.1824;0.1140;-0.2418;0.324
8.009000;0.2026;0.1846;-0.2916;0.400
8.010000;0.2317;0.2549;-0.3271;0.475
8.010000;0.2320;0.2910;-0.3624;0.519
8.010000;0.2730;0.3241;-0.4097;0.589
8.014000;0.2427;0.3684;-0.4785;0.651
8.019000;0.2701;0.4003;-0.5089;0.702
8.024000;0.2668;0.4411;-0.5464;0.751
8.029000;0.2614;0.4840;-0.5290;0.763
8.034000;0.2418;0.4859;-0.5235;0.754
8.039000;0.2293;0.5138;-0.5252;0.770
8.045000;0.2261;0.4936;-0.5077;0.743
8.048000;0.2700;0.5449;-0.5405;0.814
8.054000;0.3352;0.5362;-0.5755;0.855
8.058000;0.3857;0.5178;-0.5795;0.868
8.063000;0.4359;0.5258;-0.5811;0.897
8.068000;0.4642;0.5316;-0.5850;0.917
8.073000;0.4831;0.5566;-0.5627;0.927
8.079000;0.4451;0.5436;-0.5332;0.882
8.084000;0.4700;0.5593;-0.5037;0.887
8.088000;0.4723;0.5754;-0.4241;0.857
8.093000;0.3251;0.5748;-0.3232;0.735
8.100000;0.2799;0.5314;-0.1746;0.625
8.102000;0.3152;0.5073;-0.0501;0.599
8.111000;0.2492;0.4663;0.0790;0.535
8.128000;0.1726;0.4371;0.2032;0.512
8.129000;0.0976;0.3744;0.3295;0.508
8.129000;0.0552;0.2854;0.4819;0.563
8.131000;-0.0124;0.2203;0.6413;0.678
8.133000;-0.0386;0.1748;0.7886;0.809
8.137000;-0.0695;0.1082;0.9428;0.952
8.142000;-0.0289;0.0109;1.0753;1.076
8.147000;0.0307;-0.0788;1.2292;1.232
8.152000;0.0678;-0.1585;1.3782;1.389
8.157000;0.1847;-0.1971;1.5389;1.562
8.163000;0.3451;-0.2045;1.6660;1.714
8.166000;0.4985;-0.1548;1.7475;1.824
8.171000;0.5806;-0.0793;1.7860;1.880
8.177000;0.5709;0.0075;1.8220;1.909
8.181000;0.5147;0.1199;1.7863;1.863
8.187000;0.4792;0.1885;1.6743;1.752
8.191000;0.4414;0.2208;1.4524;1.534
8.198000;0.3589;0.2003;1.2284;1.295
8.200000;0.2755;0.1470;0.9927;1.041
8.205000;0.1199;0.0974;0.7955;0.810
8.211000;-0.0238;0.0285;0.6869;0.688
8.228000;-0.1220;-0.0112;0.7266;0.737
8.229000;-0.2110;-0.0315;0.8474;0.874
8.230000;-0.2742;-0.1250;1.0111;1.055
8.231000;-0.2929;-0.2924;1.2463;1.313
8.235000;-0.3181;-0.4887;1.5457;1.652
8.240000;-0.2594;-0.6905;1.7802;1.927
8.245000;-0.2058;-0.9031;1.9715;2.178
8.252000;-0.1675;-1.1107;2.1386;2.416
8.255000;-0.1063;-1.3039;2.2746;2.624
8.260000;-0.0510;-1.4906;2.3984;2.824
8.264000;0.0003;-1.5682;2.4816;2.936
8.269000;0.0594;-1.6141;2.5837;3.047
8.275000;0.0783;-1.5955;2.6260;3.074
8.282000;0.1357;-1.5660;2.5606;3.005
8.284000;0.1693;-1.4187;2.2683;2.681
8.289000;0.2030;-1.2900;2.2989;2.644
8.293000;0.2397;-1.1059;1.9303;2.238
8.322000;0.2293;-0.8900;1.5001;1.759
8.323000;0.2173;-0.6586;1.1134;1.312
8.324000;0.1947;-0.4158;0.6603;0.804
8.324000;0.1712;-0.1968;0.2579;0.367
8.324000;0.1834;0.0134;-0.0578;0.193
8.325000;0.1286;0.2535;-0.4114;0.500
8.333000;0.0674;0.4334;-0.7357;0.857
8.334000;-0.0069;0.6417;-1.0143;1.200
8.338000;-0.0769;0.7624;-1.2853;1.496
8.343000;-0.1709;0.8513;-1.4842;1.720
8.350000;-0.2360;0.8827;-1.6304;1.869
8.353000;-0.3127;0.8619;-1.7119;1.942
8.358000;-0.4727;0.7969;-1.7001;1.936
8.363000;-0.5771;0.7140;-1.6024;1.847
8.367000;-0.6907;0.6130;-1.4141;1.689
8.373000;-0.8689;0.4579;-1.2118;1.560
8.378000;-1.0521;0.2797;-0.9022;1.414
8.383000;-1.1740;0.0686;-0.6336;1.336
8.387000;-1.2138;-0.1324;-0.3439;1.269
8.392000;-1.1768;-0.3523;-0.0689;1.230
8.400000;-1.0972;-0.5844;0.1676;1.254
8.401000;-0.9441;-0.8123;0.4516;1.325
8.411000;-0.7707;-1.0176;0.7139;1.463
8.411000;-0.5414;-1.1865;1.0068;1.648
8.433000;-0.3194;-1.3418;1.2517;1.863
8.434000;-0.0812;-1.4551;1.4246;2.038
8.434000;0.1122;-1.5012;1.4587;2.096
8.434000;0.3107;-1.5714;1.3757;2.111
8.436000;0.4996;-1.5656;1.1398;2.000
8.441000;0.6028;-1.5337;0.7656;1.817
8.447000;0.6782;-1.4065;0.3178;1.593
8.451000;0.7079;-1.2548;-0.1270;1.446
8.456000;0.6762;-1.0497;-0.5616;1.369
8.461000;0.6056;-0.8481;-0.8905;1.371
8.466000;0.5354;-0.6327;-1.2142;1.470
8.470000;0.3660;-0.4514;-1.4467;1.559
8.475000;0.1650;-0.3086;-1.6311;1.668
8.480000;0.0543;-0.1565;-1.7244;1.732
8.485000;-0.0471;0.0001;-1.8200;1.821
8.490000;-0.1253;0.1161;-1.8486;1.856
8.495000;-0.1443;0.2176;-1.8556;1.874
8.500000;-0.1431;0.2950;-1.8483;1.877
8.505000;-0.0859;0.3268;-1.9271;1.957
8.512000;-0.0333;0.3438;-2.0058;2.035
8.533000;0.0673;0.3850;-2.1059;2.142
8.534000;0.1749;0.3811;-2.1987;2.238
8.535000;0.2583;0.3468;-2.2794;2.320
8.535000;0.3225;0.3470;-2.3266;2.374
8.535000;0.3267;0.3600;-2.3569;2.407
8.539000;0.3307;0.3671;-2.3418;2.393
8.544000;0.3229;0.3871;-2.2885;2.343
8.551000;0.2578;0.4609;-2.2304;2.292
8.553000;0.1667;0.5213;-2.1127;2.182
8.558000;0.1003;0.5825;-2.0453;2.129
8.564000;0.0438;0.6082;-1.9661;2.058
8.571000;-0.0168;0.6631;-1.8631;1.978
8.573000;-0.0432;0.6874;-1.7434;1.875
8.579000;-0.0761;0.7002;-1.6335;1.779
8.583000;-0.0822;0.6966;-1.5334;1.686
8.588000;-0.0783;0.6456;-1.4285;1.570
8.593000;-0.0403;0.6329;-1.3501;1.492
8.601000;-0.0426;0.6251;-1.2432;1.392
8.602000;0.0057;0.5958;-1.1770;1.319
8.607000;-0.0128;0.5500;-1.0917;1.222
8.612000;-0.0023;0.5709;-1.0042;1.155
8.646000;0.0034;0.5440;-0.9789;1.120
8.647000;-0.0052;0.5244;-0.8820;1.026
8.648000;-0.0257;0.4765;-0.7971;0.929
8.648000;-0.0558;0.4958;-0.6836;0.846
8.648000;-0.0357;0.4795;-0.5273;0.714
8.648000;-0.0254;0.4560;-0.4165;0.618
8.649000;-0.0201;0.5016;-0.3059;0.588
8.651000;-0.0894;0.4941;-0.2623;0.566
8.657000;-0.1395;0.4788;-0.2116;0.542
8.661000;-0.1297;0.4824;-0.1490;0.521
8.671000;-0.1413;0.4641;-0.0698;0.490
8.671000;-0.1003;0.4740;-0.0098;0.485
8.676000;-0.1095;0.4783;0.0526;0.493
8.684000;-0.1690;0.4891;0.1005;0.527
8.687000;-0.2167;0.5012;0.1722;0.573
8.690000;-0.2836;0.5313;0.2080;0.637
8.695000;-0.3003;0.6059;0.2485;0.720
8.717000;-0.2814;0.6817;0.2698;0.785
8.718000;-0.3106;0.7419;0.2910;0.855
8.718000;-0.2758;0.8247;0.2310;0.900
8.718000;-0.2389;0.8607;0.1902;0.913
8.720000;-0.1855;0.9077;0.0969;0.932
8.725000;-0.1537;0.9657;0.0347;0.978
8.730000;-0.1310;1.0042;-0.0967;1.017
8.735000;-0.0858;1.0639;-0.0870;1.071
8.740000;-0.1038;1.0637;-0.1084;1.074
8.745000;-0.1134;1.0542;-0.0725;1.063
8.750000;-0.1237;1.0260;0.0206;1.034
8.755000;-0.1467;0.9673;0.1686;0.993
8.759000;-0.1802;0.9542;0.3354;1.027
8.765000;-0.2172;0.9030;0.5498;1.079
8.769000;-0.2464;0.8471;0.7113;1.133
8.774000;-0.3107;0.7840;0.8774;1.217
8.779000;-0.3482;0.6969;1.0385;1.298
8.783000;-0.3475;0.6026;1.1827;1.372
8.789000;-0.3948;0.4677;1.2549;1.396
8.793000;-0.4185;0.3708;1.3439;1.456
8.800000;-0.5403;0.2308;1.3611;1.482
8.807000;-0.6358;0.1028;1.4882;1.622
8.808000;-0.8147;-0.0272;1.6055;1.801
8.813000;-0.8841;-0.1378;1.8495;2.055
8.828000;-0.9786;-0.2983;2.0525;2.293
8.829000;-0.9228;-0.3870;2.1741;2.393
8.829000;-0.7390;-0.3944;2.2790;2.428
8.834000;-0.5497;-0.4475;2.3623;2.466
8.839000;-0.3144;-0.4530;2.2616;2.328
8.843000;-0.0594;-0.4660;2.0442;2.097
8.850000;0.1705;-0.5557;1.7602;1.854
8.853000;0.3236;-0.6234;1.3858;1.554
8.857000;0.4828;-0.7572;1.1196;1.435
8.862000;0.6161;-0.8727;0.9015;1.398
8.869000;0.7294;-0.9863;0.7960;1.462
8.872000;0.8400;-1.0263;0.8124;1.555
8.877000;0.9268;-1.0193;0.9434;1.670
8.884000;0.9469;-0.8990;1.0837;1.697
8.886000;0.8882;-0.7713;1.2523;1.718
8.891000;0.7460;-0.6610;1.3801;1.702
8.896000;0.6038;-0.5488;1.4215;1.639
8.926000;0.4517;-0.4374;1.4771;1.605
8.926000;0.3162;-0.3722;1.4274;1.509
8.926000;0.1998;-0.2838;1.3920;1.435
8.927000;0.0453;-0.2246;1.3039;1.324
8.927000;-0.0919;-0.2542;1.2398;1.269
8.927000;-0.2424;-0.3576;1.2137;1.288
8.930000;-0.3369;-0.4867;1.2593;1.392
8.936000;-0.4019;-0.6533;1.4171;1.611
8.940000;-0.4359;-0.7977;1.6104;1.849
8.945000;-0.4634;-0.9560;1.8561;2.139
8.952000;-0.4541;-1.0955;2.1588;2.463
8.955000;-0.4256;-1.1972;2.2795;2.610
8.960000;-0.3783;-1.2328;2.2568;2.599
8.965000;-0.3110;-1.2437;2.3991;2.720
8.971000;-0.1792;-1.2562;2.3669;2.686
8.975000;-0.0718;-1.2562;2.2942;2.617
8.979000;-0.0322;-1.1938;2.0592;2.380
8.985000;0.0193;-1.0832;1.7576;2.065
8.990000;0.0545;-0.8910;1.4207;1.678
8.994000;0.0358;-0.7245;1.0507;1.277
9.002000;-0.0460;-0.5091;0.6454;0.823
9.004000;-0.1280;-0.3876;0.2550;0.481
9.011000;-0.2387;-0.2419;-0.0345;0.342
9.014000;-0.3204;-0.1980;-0.3021;0.483
9.046000;-0.4306;-0.1478;-0.5240;0.694
9.048000;-0.5187;-0.0982;-0.6524;0.839
9.048000;-0.5847;-0.0631;-0.7424;0.947
9.048000;-0.6982;-0.0450;-0.7439;1.021
9.049000;-0.7520;-0.0627;-0.6976;1.028
9.049000;-0.7654;-0.0974;-0.6491;1.008
9.051000;-0.7509;-0.1444;-0.5241;0.927
9.053000;-0.6872;-0.1970;-0.4184;0.828
9.058000;-0.5556;-0.2603;-0.3295;0.696
9.063000;-0.4141;-0.3562;-0.3268;0.636
9.070000;-0.2984;-0.4493;-0.3838;0.662
9.073000;-0.1751;-0.5203;-0.3929;0.675
9.078000;-0.0892;-0.5744;-0.4952;0.764
9.085000;0.0337;-0.5971;-0.5782;0.832
9.087000;0.1385;-0.6126;-0.6444;0.900
9.092000;0.1489;-0.5968;-0.7344;0.958
9.097000;0.1704;-0.5666;-0.8051;0.999
9.121000;0.1170;-0.5318;-0.8996;1.052
9.122000;0.1040;-0.4685;-0.9605;1.074
9.122000;0.0810;-0.3837;-0.9927;1.067
9.123000;0.0246;-0.3203;-1.0391;1.088
9.123000;-0.0270;-0.2237;-1.0449;1.069
9.127000;-0.0374;-0.2063;-1.0148;1.036
9.132000;-0.0521;-0.1701;-0.9488;0.965
9.136000;-0.0518;-0.1466;-0.8639;0.878
9.141000;-0.0201;-0.1456;-0.8149;0.828
9.146000;0.0049;-0.1507;-0.7564;0.771
9.151000;0.0877;-0.1645;-0.7768;0.799
9.156000;0.1515;-0.1322;-0.8163;0.841
9.161000;0.2012;-0.1039;-0.9299;0.957
9.166000;0.2486;-0.0582;-1.0720;1.102
9.171000;0.2723;-0.0237;-1.2211;1.251
9.176000;0.3083;0.0362;-1.3508;1.386
9.181000;0.3324;0.1265;-1.5258;1.567
9.186000;0.3372;0.1949;-1.6409;1.686
9.191000;0.3013;0.3303;-1.7653;1.821
9.196000;0.2414;0.3990;-1.8705;1.928
9.202000;0.1818;0.4681;-1.9110;1.976
9.205000;0.1419;0.5808;-1.9347;2.025
9.211000;0.0997;0.6416;-1.9202;2.027
9.214000;0.0151;0.6938;-1.9272;2.048
9.248000;-0.0762;0.7061;-1.8888;2.018
9.250000;-0.1595;0.6740;-1.7955;1.925
9.250000;-0.1965;0.6836;-1.6833;1.827
9.251000;-0.2040;0.6604;-1.5067;1.658
9.251000;-0.2609;0.6567;-1.3686;1.540
9.252000;-0.2238;0.6076;-1.1972;1.361
9.252000;-0.1934;0.5894;-1.0715;1.238
9.254000;-0.1605;0.5185;-0.9890;1.128
9.259000;-0.1491;0.5190;-0.9615;1.103
9.264000;-0.1093;0.4639;-0.9053;1.023
9.268000;-0.0842;0.4373;-0.9376;1.038
9.274000;-0.0524;0.4081;-0.9269;1.014
9.279000;0.0029;0.4122;-0.9329;1.020
9.286000;0.0529;0.3874;-0.9269;1.006
9.289000;0.0710;0.4130;-0.9424;1.031
9.293000;0.1121;0.4099;-0.9674;1.057
9.298000;0.1523;0.4548;-1.0043;1.113
9.325000;0.1967;0.4664;-1.0340;1.151
9.326000;0.2167;0.4497;-1.0589;1.171
9.326000;0.2320;0.4930;-1.0598;1.192
9.326000;0.2352;0.5437;-1.0583;1.213
9.327000;0.2219;0.5944;-1.0712;1.245
9.327000;0.1947;0.6546;-1.0793;1.277
9.332000;0.1204;0.6482;-1.1209;1.300
9.337000;0.0374;0.6544;-1.1195;1.297
9.342000;-0.0016;0.6446;-1.0511;1.233
9.347000;-0.0397;0.6306;-0.9949;1.179
9.352000;-0.0384;0.6341;-0.9340;1.130
9.356000;-0.0290;0.5643;-0.8373;1.010
9.361000;-0.0329;0.5167;-0.6381;0.822
9.367000;-0.0258;0.4409;-0.4128;0.605
9.371000;-0.0246;0.3964;-0.1521;0.425
9.376000;-0.0128;0.3276;0.1036;0.344
9.381000;0.0022;0.3082;0.3446;0.462
9.386000;0.0300;0.2636;0.5709;0.630
9.391000;0.0340;0.2174;0.7420;0.774
9.396000;0.0593;0.2122;0.9249;0.951
9.403000;0.0793;0.1952;0.9762;0.999
9.406000;0.0867;0.1927;0.9510;0.974
9.411000;0.0552;0.2284;0.8949;0.925
9.415000;0.0447;0.2693;0.8078;0.853
9.448000;0.0359;0.3468;0.6396;0.728
9.449000;0.0770;0.4183;0.4215;0.599
9.449000;0.1082;0.3916;0.1726;0.441
9.450000;0.1636;0.3819;-0.0209;0.416
9.450000;0.2003;0.3113;-0.1474;0.398
9.450000;0.2282;0.2667;-0.1661;0.388
9.451000;0.2737;0.2410;-0.0559;0.369
9.455000;0.2988;0.2678;0.1067;0.415
9.460000;0.3153;0.2987;0.2738;0.513
9.464000;0.2969;0.3193;0.4478;0.625
9.469000;0.2673;0.3412;0.5619;0.710
9.474000;0.2295;0.3334;0.6613;0.775
9.479000;0.1668;0.2670;0.7774;0.839
9.486000;0.1368;0.2213;0.8981;0.935
9.490000;0.0769;0.1291;1.0233;1.034
9.494000;0.0423;0.0243;1.1771;1.178
9.498000;-0.0012;-0.0598;1.3068;1.308
9.521000;-0.0273;-0.1586;1.5079;1.517
9.522000;-0.0726;-0.2461;1.7423;1.761
9.523000;-0.0441;-0.2891;1.9454;1.967
9.523000;-0.1314;-0.4552;2.1362;2.188
9.525000;-0.1907;-0.6391;2.1859;2.285
9.529000;-0.2490;-0.8529;2.1757;2.350
9.533000;-0.3990;-1.0482;2.1680;2.441
9.538000;-0.4561;-1.2727;2.1531;2.542
9.543000;-0.5324;-1.5568;2.2746;2.807
9.549000;-0.6526;-1.8264;2.4532;3.127
9.552000;-0.6327;-2.0481;2.6938;3.443
9.557000;-0.6271;-2.1844;2.9676;3.738
9.562000;-0.4934;-2.3147;3.2817;4.046
9.569000;-0.2782;-2.4239;3.6193;4.365
9.572000;-0.0062;-2.4871;3.8681;4.599
9.577000;0.2509;-2.4558;3.9158;4.629
9.582000;0.5046;-2.3576;3.8367;4.531
9.591000;0.6694;-2.1362;3.5809;4.223
9.592000;0.7725;-1.8995;3.1269;3.739
9.596000;0.7848;-1.5613;2.6067;3.138
9.637000;0.8215;-1.2406;2.1038;2.577
9.638000;0.8451;-0.9725;1.5274;1.998
9.639000;0.8630;-0.6654;0.9758;1.463
9.639000;0.8236;-0.5069;0.5302;1.103
9.639000;0.6849;-0.2307;-0.3188;0.790
9.640000;0.5268;-0.0385;-0.7029;0.879
9.640000;0.2923;0.1662;-1.0960;1.146
9.640000;0.0393;0.3658;-1.4528;1.499
9.641000;-0.2034;0.5300;-1.6418;1.737
9.645000;-0.3853;0.6453;-1.7063;1.865
9.651000;-0.5854;0.6789;-1.6944;1.917
9.656000;-0.7917;0.6549;-1.6180;1.917
9.660000;-0.9948;0.5662;-1.3960;1.805
9.665000;-1.1040;0.4696;-1.0883;1.620
9.670000;-1.1700;0.3357;-0.7190;1.414
9.675000;-1.2650;0.1636;-0.3166;1.314
9.680000;-1.2341;-0.0206;0.0207;1.234
9.688000;-1.1636;-0.2089;0.2954;1.219
9.691000;-1.0040;-0.4442;0.5149;1.213
9.695000;-0.8251;-0.6438;0.6910;1.254
9.699000;-0.6323;-0.7602;0.8718;1.318
9.732000;-0.4406;-0.8472;0.9520;1.348
9.733000;-0.3322;-0.8833;0.9462;1.336
9.733000;-0.1829;-0.9336;0.8591;1.282
9.734000;0.0285;-0.9908;0.7291;1.230
9.734000;0.1773;-1.0169;0.5419;1.166
9.734000;0.2778;-0.9920;0.2977;1.072
9.735000;0.3638;-0.9712;0.0490;1.038
9.738000;0.4113;-0.9183;-0.1707;1.021
9.743000;0.4280;-0.8616;-0.3828;1.035
9.748000;0.4234;-0.7817;-0.5827;1.063
9.753000;0.4243;-0.6429;-0.7656;1.086
9.759000;0.4067;-0.5071;-0.9147;1.122
9.763000;0.3642;-0.3745;-1.0898;1.209
9.769000;0.3163;-0.2737;-1.2168;1.287
9.772000;0.2680;-0.1690;-1.3532;1.390
9.778000;0.1907;-0.0700;-1.5085;1.522
9.782000;0.1615;-0.0122;-1.6301;1.638
9.793000;0.1903;0.0832;-1.7301;1.742
9.796000;0.2246;0.1229;-1.8298;1.848
9.797000;0.2381;0.1597;-1.9032;1.925
9.804000;0.2983;0.2032;-1.9622;1.995
9.836000;0.3887;0.2201;-1.9566;2.007
9.837000;0.4281;0.2507;-1.9535;2.015
9.837000;0.4044;0.2472;-1.9862;2.042
9.838000;0.4064;0.2741;-2.0334;2.092
9.838000;0.4032;0.2791;-2.0304;2.089
9.839000;0.3779;0.3124;-1.9797;2.039
9.839000;0.3185;0.3858;-1.9721;2.035
9.842000;0.2297;0.4372;-1.9862;2.047
9.847000;0.1591;0.5313;-2.0385;2.113
9.853000;0.1020;0.6159;-2.0765;2.168
9.856000;0.0363;0.6651;-2.0858;2.190
9.861000;-0.0429;0.6888;-2.1214;2.231
9.866000;-0.1597;0.6901;-2.1140;2.229
9.871000;-0.2901;0.6856;-2.0684;2.198
9.876000;-0.3459;0.6759;-1.9989;2.138
9.881000;-0.4159;0.6706;-1.8626;2.023
9.887000;-0.4957;0.6817;-1.7528;1.945
9.891000;-0.5733;0.6590;-1.6049;1.827
9.895000;-0.6201;0.5975;-1.4810;1.713
9.900000;-0.6266;0.5090;-1.3286;1.555
9.938000;-0.6738;0.4608;-1.1907;1.444
9.939000;-0.6877;0.3426;-0.9742;1.241
9.939000;-0.6921;0.2880;-0.7913;1.090
9.939000;-0.6895;0.1436;-0.5536;0.896
9.940000;-0.6581;0.0985;-0.3474;0.751
9.940000;-0.6693;0.0537;-0.1174;0.682
9.940000;-0.6131;-0.0077;0.1170;0.624
9.940000;-0.5325;-0.1176;0.3582;0.652
9.944000;-0.5109;-0.2165;0.5967;0.815
9.949000;-0.4600;-0.2837;0.7871;0.955
9.954000;-0.4138;-0.3171;0.8984;1.039
9.959000;-0.4205;-0.3129;0.9832;1.114
9.964000;-0.4018;-0.2710;0.9413;1.059
9.971000;-0.3940;-0.2368;0.8421;0.959
9.974000;-0.4112;-0.1960;0.6498;0.794
9.979000;-0.4200;-0.0930;0.4220;0.603
9.983000;-0.4685;0.0148;0.1540;0.493
9.991000;-0.4897;0.1427;-0.1113;0.522
9.993000;-0.5243;0.2983;-0.3881;0.717
9.998000;-0.5647;0.4560;-0.6238;0.957
10.004000;-0.6369;0.5610;-0.8234;1.182
10.008000;-0.6855;0.7020;-1.0274;1.421
10.012000;-0.7963;0.7981;-1.1235;1.592
10.047000;-0.8349;0.9188;-1.2148;1.737
10.048000;-0.9087;0.9925;-1.2104;1.810
10.049000;-0.9601;1.0625;-1.1607;1.843
10.049000;-1.0052;1.1238;-1.0417;1.833
10.049000;-1.0061;1.1596;-0.9039;1.782
10.049000;-1.0320;1.1124;-0.7878;1.710
10.050000;-1.0543;1.0296;-0.6075;1.594
10.055000;-1.0223;0.9113;-0.3916;1.424
10.056000;-1.0458;0.8335;-0.1880;1.350
10.062000;-1.0292;0.7697;0.0558;1.286
10.066000;-1.0443;0.6861;0.2299;1.271
10.071000;-1.0630;0.5851;0.4037;1.279
10.077000;-1.0733;0.4547;0.5438;1.286
10.081000;-1.0515;0.3264;0.6742;1.291
10.089000;-1.0865;0.1955;0.8354;1.384
10.092000;-1.0877;0.0599;0.9677;1.457
10.096000;-1.0576;-0.0735;1.0808;1.514
10.132000;-1.0207;-0.1900;1.2296;1.609
10.133000;-0.9341;-0.3444;1.4022;1.720
10.134000;-0.8343;-0.4435;1.5674;1.830
10.134000;-0.6618;-0.5234;1.7445;1.938
10.134000;-0.4795;-0.5269;1.9143;2.043
10.136000;-0.3091;-0.4640;2.0219;2.097
10.137000;-0.1463;-0.3974;2.0244;2.068
10.137000;-0.0124;-0.3175;1.8692;1.896
10.140000;0.0767;-0.2384;1.6762;1.695
10.145000;0.0977;-0.2008;1.3878;1.406
10.150000;0.0946;-0.0983;1.1166;1.125
10.154000;0.0945;-0.0428;0.9270;0.933
10.160000;0.0214;0.0743;0.8115;0.815
10.164000;-0.0525;0.2173;0.8347;0.864
10.172000;-0.0844;0.3436;0.8673;0.937
10.175000;-0.1824;0.4367;0.8806;1.000
10.179000;-0.3060;0.4231;0.9894;1.119
10.184000;-0.4836;0.4080;1.0931;1.263
10.189000;-0.8159;0.3104;1.3066;1.571
10.194000;-1.1401;0.2115;1.6056;1.981
10.199000;-1.3991;0.1371;1.9329;2.390
10.205000;-1.6149;0.0505;2.2885;2.801
10.211000;-1.7899;-0.0948;2.6317;3.184
10.214000;-1.8453;-0.2758;2.8407;3.399
10.219000;-1.8502;-0.4650;2.9921;3.549
10.247000;-1.7591;-0.6630;3.0166;3.554
10.248000;-1.5789;-0.8443;2.9671;3.465
10.249000;-1.4076;-0.9683;2.8173;3.295
10.249000;-1.1589;-1.0139;2.6533;3.068
10.250000;-0.8407;-0.9834;2.5063;2.820
10.250000;-0.6112;-0.9675;2.2639;2.537
10.254000;-0.4416;-0.9134;2.0648;2.301
10.258000;-0.2940;-0.8880;1.8732;2.094
10.262000;-0.2064;-0.7696;1.5982;1.786
10.267000;-0.1097;-0.6418;1.3165;1.469
10.272000;-0.0399;-0.5140;0.9348;1.068
10.277000;-0.0211;-0.3879;0.5393;0.665
10.282000;-0.0129;-0.2656;-0.1304;0.296
10.292000;-0.0321;-0.1387;-0.4336;0.456
10.293000;-0.0833;-0.0921;-0.7985;0.808
10.297000;-0.1234;-0.0313;-1.3087;1.315
10.302000;-0.1186;0.0183;-1.5889;1.593
10.337000;-0.1022;0.0408;-1.8162;1.820
10.338000;-0.0914;0.0128;-1.9621;1.964
10.338000;-0.0694;-0.0466;-1.9979;2.000
10.339000;-0.0266;-0.1776;-1.9071;1.916
10.339000;0.0036;-0.3210;-1.7615;1.790
10.339000;0.0568;-0.4651;-1.5156;1.586
10.340000;0.1543;-0.5920;-1.2486;1.390
10.341000;0.2459;-0.6878;-0.9914;1.231
10.346000;0.3271;-0.7731;-0.7439;1.122
10.351000;0.4389;-0.8774;-0.5708;1.135
10.356000;0.5462;-0.9995;-0.4265;1.216
10.361000;0.5868;-1.0609;-0.3780;1.270
10.365000;0.6690;-1.1221;-0.3749;1.359
10.373000;0.6424;-1.1355;-0.4053;1.366
10.376000;0.6484;-1.0989;-0.4596;1.356
10.380000;0.5796;-1.0313;-0.4852;1.279
10.386000;0.5343;-0.9377;-0.5085;1.193
10.391000;0.4048;-0.7821;-0.5342;1.030
10.395000;0.2531;-0.6147;-0.5911;0.890
10.400000;-0.0021;-0.4307;-0.6026;0.741
10.409000;-0.1916;-0.2582;-0.6643;0.738
10.410000;-0.3922;-0.0829;-0.6853;0.794
10.418000;-0.4994;0.0337;-0.6991;0.860
10.421000;-0.5423;0.1706;-0.7607;0.950
10.464000;-0.5525;0.2517;-0.8198;1.020
10.465000;-0.5159;0.2794;-0.8835;1.061
10.465000;-0.4495;0.2447;-0.9854;1.110
10.465000;-0.3078;0.1958;-1.1109;1.169
10.466000;-0.1504;0.1711;-1.2148;1.236
10.466000;0.0182;0.1134;-1.2779;1.283
10.466000;0.2126;0.0400;-1.3145;1.332
10.467000;0.3157;0.0031;-1.3105;1.348
10.467000;0.4066;-0.0328;-1.2779;1.341
10.471000;0.4402;-0.0775;-1.2285;1.307
10.473000;0.4497;-0.1167;-1.1409;1.232
10.479000;0.4593;-0.1455;-1.0511;1.156
10.483000;0.4619;-0.1787;-0.9112;1.037
10.489000;0.4487;-0.1617;-0.7859;0.919
10.493000;0.4723;-0.1809;-0.6727;0.842
10.499000;0.4950;-0.1722;-0.6099;0.804
10.521000;0.5047;-0.1720;-0.5496;0.766
10.522000;0.4680;-0.2109;-0.5779;0.773
10.522000;0.4373;-0.2338;-0.5871;0.768
10.522000;0.4532;-0.2334;-0.5891;0.779
10.523000;0.4650;-0.2119;-0.5816;0.774
10.528000;0.4627;-0.1836;-0.5812;0.765
10.533000;0.5152;-0.1482;-0.6311;0.828
10.537000;0.5554;-0.1533;-0.6617;0.877
10.542000;0.5948;-0.1631;-0.6636;0.906
10.547000;0.6403;-0.1534;-0.6964;0.958
10.552000;0.6701;-0.0999;-0.7484;1.009
10.557000;0.6910;-0.0148;-0.7834;1.045
10.562000;0.7032;0.0567;-0.8518;1.106
10.567000;0.7235;0.1145;-0.9154;1.172
10.572000;0.7928;0.1441;-0.9071;1.213
10.577000;0.7869;0.2270;-0.9394;1.246
10.581000;0.8063;0.2652;-0.9740;1.292
10.590000;0.8755;0.3800;-0.9417;1.341
10.591000;0.8538;0.4398;-0.9070;1.321
10.596000;0.7962;0.5399;-0.9321;1.340
10.600000;0.7820;0.6444;-0.9381;1.381
10.633000;0.8114;0.7103;-0.9488;1.436
10.634000;0.8486;0.7733;-1.0026;1.524
10.634000;0.8435;0.8168;-1.0874;1.600
10.634000;0.8345;0.8031;-1.1745;1.650
10.635000;0.8195;0.8135;-1.2162;1.677
10.635000;0.7651;0.8055;-1.1837;1.623
10.636000;0.6759;0.7839;-1.0820;1.497
10.641000;0.5757;0.7776;-0.9757;1.374
10.645000;0.5719;0.7411;-0.7979;1.230
10.651000;0.5373;0.7100;-0.5988;1.073
10.655000;0.5719;0.6649;-0.4597;0.990
10.660000;0.5843;0.6224;-0.3231;0.913
10.664000;0.5961;0.5204;-0.2440;0.828
10.669000;0.6216;0.4307;-0.1530;0.772
10.674000;0.6685;0.3292;-0.0287;0.746
10.679000;0.7272;0.2372;0.0930;0.771
10.684000;0.7455;0.1641;0.2457;0.802
10.690000;0.7327;0.1191;0.4102;0.848
10.694000;0.7510;0.1115;0.5338;0.928
10.699000;0.7164;0.0907;0.6095;0.945
10.731000;0.6701;0.0376;0.6540;0.937
10.731000;0.6022;-0.0167;0.6531;0.888
10.732000;0.5632;-0.0600;0.6569;0.867
10.732000;0.5102;-0.0776;0.6703;0.846
10.733000;0.4503;-0.1099;0.7123;0.850
10.733000;0.4096;-0.1519;0.7759;0.890
10.733000;0.3669;-0.2324;0.8656;0.968
10.739000;0.3556;-0.2841;1.0030;1.101
10.743000;0.3778;-0.3241;1.1570;1.259
10.748000;0.3544;-0.3165;1.2821;1.367
10.753000;0.4121;-0.2547;1.4094;1.490
10.757000;0.4361;-0.1912;1.4865;1.561
10.763000;0.4309;-0.1454;1.4917;1.559
10.767000;0.4682;-0.0983;1.4420;1.519
10.773000;0.4981;-0.0618;1.3231;1.415
10.776000;0.5711;-0.0426;1.1494;1.284
10.782000;0.5942;0.0001;0.9568;1.126
10.786000;0.5415;0.0048;0.7668;0.939
10.792000;0.3584;0.0225;0.6679;0.758
10.797000;0.1189;0.0659;0.5977;0.613
10.802000;-0.0690;0.0875;0.5825;0.593
10.838000;-0.2538;0.0638;0.5626;0.620
10.839000;-0.4901;-0.0216;0.5354;0.726
10.839000;-0.7442;-0.1806;0.5441;0.939
10.839000;-0.9893;-0.4293;0.5527;1.212
10.840000;-1.2228;-0.7030;0.7071;1.578
10.840000;-1.4163;-0.9944;0.9640;1.981
10.840000;-1.5680;-1.2321;1.3568;2.412
10.841000;-1.5640;-1.4361;1.9045;2.852
10.846000;-1.4322;-1.6097;2.4229;3.242
10.850000;-1.2834;-1.7590;2.8786;3.609
10.855000;-1.0427;-1.8999;3.2478;3.904
10.860000;-0.7207;-2.0190;3.5233;4.124
10.865000;-0.3849;-2.0745;3.6169;4.187
10.870000;-0.0617;-2.0577;3.5647;4.116
10.875000;0.1795;-1.9480;3.3475;3.877
10.880000;0.3707;-1.7674;2.9443;3.454
10.885000;0.4800;-1.5729;2.4173;2.924
10.891000;0.5295;-1.3280;1.8551;2.342
10.895000;0.5276;-1.0915;1.2722;1.757
10.899000;0.5231;-0.8458;0.6924;1.212
10.943000;0.4291;-0.5830;0.1302;0.736
10.944000;0.2328;-0.3454;-0.3023;0.515
10.944000;-0.0453;-0.1197;-0.7198;0.731
10.944000;-0.2709;0.0852;-1.0222;1.061
10.945000;-0.4293;0.2104;-1.2311;1.321
10.945000;-0.7024;0.2638;-1.3442;1.539
10.945000;-0.8719;0.3125;-1.3783;1.661
10.946000;-1.0533;0.3165;-1.3170;1.716
10.946000;-1.2496;0.2109;-1.2342;1.769
10.949000;-1.3798;0.1658;-1.0609;1.748
10.954000;-1.4689;0.0041;-0.6702;1.615
10.960000;-1.5092;-0.0733;-0.5788;1.618
10.963000;-1.4949;-0.1910;-0.2365;1.525
10.968000;-1.4029;-0.3830;-0.0452;1.455
10.973000;-1.2313;-0.5584;0.0814;1.354
10.978000;-0.9995;-0.7396;0.2366;1.266
10.983000;-0.8225;-0.9556;0.3462;1.307
10.991000;-0.6094;-1.1538;0.4724;1.388
10.993000;-0.4533;-1.3036;0.6081;1.508
10.997000;-0.2591;-1.4008;0.7340;1.603
11.002000;-0.1031;-1.4890;0.8359;1.711
11.022000;0.0098;-1.5234;0.8684;1.754
11.022000;0.0795;-1.5332;0.7861;1.725
11.023000;0.1161;-1.4925;0.6585;1.635
11.023000;0.1772;-1.4205;0.4187;1.491
11.028000;0.1968;-1.3240;0.2270;1.358
11.032000;0.2587;-1.2126;0.0451;1.241
11.036000;0.2484;-1.0884;-0.1199;1.123
11.042000;0.2306;-0.9490;-0.3110;1.025
11.047000;0.2437;-0.8159;-0.4660;0.971
11.051000;0.1920;-0.7081;-0.6686;0.993
11.056000;0.1594;-0.5800;-0.8422;1.035
11.061000;0.1149;-0.4769;-1.0157;1.128
11.066000;0.1013;-0.3867;-1.1148;1.184
11.072000;0.1207;-0.2543;-1.2808;1.311
11.076000;0.0847;-0.1633;-1.3820;1.394
11.081000;0.0842;-0.0679;-1.5189;1.523
11.086000;0.1261;-0.0231;-1.6342;1.639
11.091000;0.1888;0.0524;-1.7923;1.803
11.096000;0.2391;0.1256;-1.9358;1.955
11.100000;0.2722;0.1846;-2.0911;2.117
11.109000;0.3127;0.2631;-2.2510;2.288
11.110000;0.3340;0.3016;-2.3677;2.410
11.115000;0.2817;0.3652;-2.4747;2.517
11.120000;0.2447;0.4419;-2.5002;2.551
11.166000;0.2067;0.4892;-2.4971;2.553
11.167000;0.1532;0.5334;-2.4032;2.466
11.167000;0.1008;0.5438;-2.3046;2.370
11.167000;0.0063;0.5489;-2.1392;2.208
11.168000;-0.0824;0.5462;-1.9143;1.992
11.169000;-0.1370;0.5282;-1.7518;1.835
11.170000;-0.1794;0.5233;-1.5751;1.669
11.170000;-0.1810;0.4715;-1.3868;1.476
11.171000;-0.1755;0.4111;-1.2154;1.295
11.171000;-0.1177;0.3418;-1.0824;1.141
11.174000;-0.0679;0.2730;-0.9400;0.981
11.179000;0.0409;0.2119;-0.8576;0.884
11.183000;0.1154;0.1365;-0.7394;0.761
11.188000;0.1821;0.1067;-0.6117;0.647
11.195000;0.2867;0.0957;-0.5416;0.620
11.198000;0.4338;0.0483;-0.4309;0.613
11.203000;0.4969;0.0525;-0.3801;0.628
11.226000;0.5432;0.0558;-0.3270;0.636
11.227000;0.5849;0.0699;-0.3432;0.682
11.227000;0.5884;0.0852;-0.3714;0.701
11.228000;0.5918;0.1447;-0.4664;0.767
11.228000;0.5446;0.2414;-0.5614;0.819
11.232000;0.4496;0.3448;-0.6730;0.880
11.238000;0.3616;0.4696;-0.7653;0.968
11.243000;0.3121;0.5466;-0.8359;1.046
11.248000;0.2176;0.5788;-0.8826;1.078
11.252000;0.1331;0.6520;-0.9268;1.141
11.257000;0.0752;0.7116;-0.8873;1.140
11.262000;-0.0204;0.7504;-0.8527;1.136
11.267000;-0.1012;0.7998;-0.7463;1.099
11.272000;-0.1433;0.8210;-0.5971;1.025
11.277000;-0.1684;0.7783;-0.5006;0.941
11.282000;-0.1355;0.7505;-0.3564;0.842
11.286000;-0.1355;0.7086;-0.1886;0.746
11.291000;-0.1396;0.6689;-0.0328;0.684
11.296000;-0.1432;0.6481;0.1084;0.673
11.301000;-0.1083;0.6245;0.2661;0.687
11.309000;-0.0994;0.5906;0.4189;0.731
11.311000;-0.0640;0.5487;0.5451;0.776
11.316000;-0.0144;0.5317;0.6449;0.836
11.321000;0.0110;0.5705;0.6872;0.893
11.352000;0.0480;0.5457;0.6458;0.847
11.352000;0.1063;0.5651;0.6163;0.843
11.353000;0.1313;0.5954;0.5844;0.845
11.353000;0.1494;0.6100;0.5885;0.861
11.353000;0.1301;0.6596;0.6044;0.904
11.354000;0.1045;0.6744;0.6011;0.909
11.355000;0.0651;0.7049;0.5573;0.901
11.362000;0.0286;0.7443;0.5684;0.937
11.366000;-0.0117;0.7950;0.5508;0.967
11.370000;-0.0753;0.7880;0.5476;0.963
11.376000;-0.1120;0.7401;0.5778;0.946
11.379000;-0.1174;0.6806;0.6415;0.943
11.384000;-0.1252;0.6309;0.7099;0.958
11.393000;-0.1141;0.5793;0.7806;0.979
11.395000;-0.1512;0.5329;0.8990;1.056
11.399000;-0.1526;0.4770;0.9982;1.117
11.404000;-0.0971;0.4042;1.1259;1.200
11.428000;-0.0854;0.3312;1.2272;1.274
11.428000;-0.0651;0.1958;1.3188;1.335
11.428000;-0.0460;0.0625;1.3792;1.381
11.429000;0.0648;-0.0138;1.4395;1.441
11.431000;0.2048;-0.0336;1.4806;1.495
11.433000;0.3565;0.0010;1.4166;1.461
11.438000;0.5007;0.0543;1.2904;1.385
11.443000;0.5707;0.0858;1.1286;1.268
11.449000;0.6005;0.1389;0.9981;1.173
11.453000;0.5927;0.1735;0.8272;1.032
11.459000;0.5218;0.2022;0.7258;0.916
11.463000;0.4595;0.1867;0.6604;0.826
11.469000;0.4162;0.1323;0.5569;0.708
11.473000;0.3494;0.0654;0.3890;0.527
11.478000;0.2767;0.0317;0.3289;0.431
11.483000;0.2248;0.0201;0.3000;0.375
11.487000;0.1411;0.0378;0.3691;0.397
11.493000;0.0261;0.0396;0.5313;0.533
11.497000;-0.0911;0.0445;0.7554;0.762
11.502000;-0.2796;-0.0482;1.0605;1.098
11.511000;-0.4840;-0.1840;1.4106;1.503
11.512000;-0.6899;-0.3848;1.8033;1.969
11.517000;-0.8499;-0.6323;2.2338;2.472
11.521000;-0.9474;-0.8244;2.7068;2.984
11.559000;-0.9014;-1.0510;3.1218;3.415
11.560000;-0.8436;-1.1672;3.5100;3.794
11.561000;-0.7437;-1.2536;3.8212;4.090
11.561000;-0.6117;-1.2990;4.0005;4.250
11.562000;-0.4847;-1.3475;4.0266;4.274
11.562000;-0.3707;-1.3613;3.8350;4.086
11.563000;-0.3111;-1.3234;3.4906;3.746
11.563000;-0.2654;-1.2598;2.9554;3.224
11.566000;-0.2335;-1.0737;2.3372;2.583
11.570000;-0.2108;-0.8648;1.6958;1.915
11.575000;-0.2284;-0.6219;1.0385;1.232
11.580000;-0.2958;-0.3845;0.5255;0.715
11.585000;-0.3679;-0.1276;0.0179;0.390
11.590000;-0.4229;0.0660;-0.3934;0.581
11.595000;-0.5035;0.2235;-0.7849;0.959
11.600000;-0.5973;0.3382;-1.1353;1.327
11.605000;-0.6963;0.4587;-1.3921;1.623
11.611000;-0.7881;0.5351;-1.5529;1.822
11.616000;-0.8176;0.5031;-1.4482;1.737
11.620000;-0.8297;0.5062;-1.7117;1.968
11.657000;-0.8027;0.4310;-1.5207;1.773
11.657000;-0.7817;0.3276;-1.3515;1.595
11.658000;-0.7689;0.2287;-1.2518;1.487
11.658000;-0.7451;0.1530;-1.0519;1.298
11.659000;-0.6269;0.0374;-0.9311;1.123
11.659000;-0.5173;-0.1088;-0.8199;0.976
11.660000;-0.3685;-0.2308;-0.7424;0.860
11.660000;-0.2047;-0.3312;-0.6864;0.789
11.664000;-0.0737;-0.4392;-0.6329;0.774
11.668000;0.0502;-0.5264;-0.6320;0.824
11.673000;0.1647;-0.5544;-0.6406;0.863
11.678000;0.2551;-0.5976;-0.6349;0.908
11.684000;0.3260;-0.6175;-0.6412;0.948
11.688000;0.3818;-0.6071;-0.6905;0.996
11.694000;0.3603;-0.5590;-0.7660;1.014
11.698000;0.3357;-0.5212;-0.8415;1.045
11.703000;0.3004;-0.4168;-0.9790;1.106
11.707000;0.2472;-0.3505;-1.0971;1.178
11.738000;0.1591;-0.2719;-1.1842;1.225
11.739000;0.0796;-0.2450;-1.2376;1.264
11.740000;-0.0031;-0.1455;-1.2168;1.226
11.740000;-0.0771;-0.0955;-1.1698;1.176
11.740000;-0.1468;-0.0427;-1.1037;1.114
11.741000;-0.1716;-0.0158;-1.0592;1.073
11.744000;-0.1845;0.0421;-0.9670;0.985
11.751000;-0.1761;-0.0033;-0.9203;0.937
11.753000;-0.1438;-0.0110;-0.8497;0.862
11.758000;-0.0828;-0.0697;-0.7984;0.806
11.762000;-0.0479;-0.1246;-0.7782;0.790
11.767000;0.0015;-0.1159;-0.7318;0.741
11.772000;0.0437;-0.1225;-0.7762;0.787
11.776000;0.0550;-0.1111;-0.7752;0.785
11.781000;0.0833;-0.0720;-0.7790;0.787
11.786000;0.0832;-0.0770;-0.7876;0.796
11.794000;0.0427;-0.0157;-0.7891;0.790
11.799000;-0.0073;0.0351;-0.8311;0.832
11.801000;-0.0283;0.1116;-0.8517;0.859
11.806000;-0.0467;0.1636;-0.9056;0.921
11.838000;-0.1318;0.2129;-0.9571;0.989
11.839000;-0.1926;0.2427;-0.9441;0.994
11.839000;-0.2358;0.2726;-0.9597;1.025
11.839000;-0.2637;0.2906;-0.8558;0.941
11.840000;-0.2811;0.2679;-0.7735;0.866
11.840000;-0.2432;0.2763;-0.6913;0.783
11.841000;-0.2364;0.2603;-0.6428;0.733
11.845000;-0.1914;0.2656;-0.6420;0.721
11.850000;-0.1559;0.2300;-0.6747;0.730
11.855000;-0.1137;0.2731;-0.7289;0.787
11.860000;-0.0912;0.2756;-0.7592;0.813
11.864000;-0.0574;0.2785;-0.8228;0.871
11.869000;-0.0147;0.2486;-0.8194;0.856
11.875000;0.0439;0.2600;-0.8328;0.874
11.880000;0.1015;0.2626;-0.8318;0.878
11.884000;0.1415;0.3015;-0.8379;0.902
11.889000;0.1233;0.3479;-0.8823;0.956
11.894000;0.1309;0.3899;-0.9123;1.001
11.899000;0.1599;0.4274;-0.9184;1.025
11.904000;0.1768;0.4890;-0.9435;1.077
11.913000;0.1941;0.5150;-0.9017;1.056
11.914000;0.2430;0.5460;-0.8719;1.057
11.918000;0.2780;0.5600;-0.8135;1.026
11.923000;0.2682;0.5307;-0.7670;0.971
11.958000;0.2829;0.5300;-0.7302;0.946
11.960000;0.2813;0.5388;-0.6863;0.917
11.960000;0.2373;0.5379;-0.6377;0.867
11.961000;0.2126;0.5535;-0.5437;0.804
11.961000;0.1831;0.5836;-0.4856;0.781
11.962000;0.1920;0.5875;-0.3894;0.730
11.963000;0.2483;0.5840;-0.3220;0.712
11.963000;0.2851;0.5614;-0.2691;0.685
11.967000;0.3263;0.5339;-0.2281;0.666
11.972000;0.3504;0.5136;-0.1896;0.650
11.978000;0.4458;0.5364;-0.1511;0.714
11.982000;0.4762;0.5112;-0.1820;0.722
11.987000;0.4345;0.5269;-0.2009;0.712
11.994000;0.4498;0.5431;-0.2389;0.745
11.997000;0.4118;0.4811;-0.2959;0.699
12.002000;0.3422;0.4730;-0.2979;0.655
12.006000;0.3008;0.4332;-0.2234;0.573
12.025000;0.2952;0.4168;-0.0796;0.517
12.027000;0.2658;0.3921;0.0950;0.483
12.027000;0.2055;0.3376;0.2886;0.489
12.027000;0.1386;0.2790;0.5226;0.608
12.031000;0.0369;0.2350;0.7540;0.791
12.036000;-0.0496;0.1744;1.0137;1.030
12.041000;-0.1112;0.1469;1.2492;1.263
12.046000;-0.1551;0.0685;1.4557;1.466
12.050000;-0.1551;-0.0299;1.6452;1.653
12.055000;-0.1858;-0.0793;1.8177;1.829
12.061000;-0.1659;-0.1208;1.8752;1.886
12.066000;-0.1029;-0.1472;1.9446;1.953
12.070000;-0.0853;-0.1156;1.9661;1.971
12.075000;0.0514;-0.0593;1.9636;1.965
12.081000;0.1799;0.0291;1.8990;1.908
12.085000;0.2094;0.1137;1.7890;1.805
12.090000;0.2139;0.1855;1.5788;1.604
12.095000;0.1481;0.2572;1.4381;1.468
12.099000;0.0479;0.3201;1.2164;1.259
12.105000;-0.0863;0.3175;1.0261;1.078
12.139000;-0.2469;0.2692;0.8767;0.950
12.140000;-0.4145;0.1975;0.7992;0.922
12.140000;-0.5409;0.1625;0.9155;1.076
12.141000;-0.6713;0.0973;1.0914;1.285
12.141000;-0.7721;0.0444;1.3484;1.554
12.141000;-0.8221;0.0268;1.6554;1.848
12.142000;-0.7929;-0.0309;1.9070;2.065
12.145000;-0.8017;-0.1513;2.0985;2.252
12.149000;-0.7912;-0.2392;2.1775;2.329
12.153000;-0.6972;-0.3738;2.2062;2.344
12.161000;-0.6131;-0.5147;2.0890;2.237
12.163000;-0.5272;-0.7071;1.9050;2.099
12.169000;-0.3864;-0.8791;1.7547;2.000
12.173000;-0.2600;-1.0209;1.5424;1.868
12.178000;-0.1859;-1.1132;1.4021;1.800
12.183000;-0.0924;-1.2112;1.2499;1.743
12.188000;0.0372;-1.2456;1.1098;1.669
12.195000;0.0972;-1.2398;0.9842;1.586
12.202000;0.1590;-1.2468;0.8469;1.516
12.203000;0.2175;-1.2257;0.6929;1.425
12.207000;0.2462;-1.2194;0.6061;1.384
12.241000;0.2450;-1.1633;0.4907;1.286
12.241000;0.2304;-1.0574;0.4423;1.169
12.242000;0.1886;-0.9305;0.3606;1.016
12.242000;0.1243;-0.8094;0.2384;0.853
12.242000;0.0592;-0.6914;0.1402;0.708
12.243000;-0.0108;-0.6026;0.0039;0.603
12.243000;-0.1020;-0.5618;-0.1346;0.587
12.246000;-0.1589;-0.4996;-0.2133;0.566
12.252000;-0.1977;-0.4611;-0.1986;0.540
12.256000;-0.2276;-0.4224;-0.1768;0.511
12.261000;-0.2816;-0.3984;-0.1765;0.519
12.266000;-0.3501;-0.3459;-0.1811;0.524
12.271000;-0.4229;-0.3249;-0.2002;0.570
12.276000;-0.5267;-0.2945;-0.1977;0.635
12.280000;-0.6284;-0.2806;-0.3172;0.758
12.286000;-0.7213;-0.2880;-0.1760;0.796
12.290000;-0.7725;-0.2806;-0.1306;0.832
12.295000;-0.8257;-0.2989;-0.2549;0.914
12.300000;-0.8428;-0.3211;-0.1855;0.921
12.305000;-0.8385;-0.3496;-0.1806;0.926
12.340000;-0.8130;-0.3462;-0.1590;0.898
12.342000;-0.7812;-0.3611;-0.2043;0.885
12.343000;-0.7723;-0.3755;-0.2160;0.885
12.343000;-0.6740;-0.3892;-0.2420;0.815
12.343000;-0.5630;-0.3952;-0.3181;0.758
12.344000;-0.4613;-0.4010;-0.4061;0.734
12.344000;-0.3546;-0.3778;-0.5368;0.746
12.345000;-0.2143;-0.3567;-0.6913;0.807
12.350000;-0.1652;-0.3088;-0.9125;0.977
12.354000;-0.1160;-0.3131;-1.1214;1.170
12.360000;-0.1019;-0.2782;-1.3084;1.342
12.364000;-0.0744;-0.2758;-1.4115;1.440
12.368000;-0.0953;-0.2054;-1.4713;1.489
12.374000;-0.1331;-0.1797;-1.4498;1.467
12.378000;-0.1537;-0.1105;-1.3375;1.351
12.384000;-0.1568;-0.0918;-1.2612;1.274
12.389000;-0.1232;-0.0880;-1.1563;1.166
12.394000;-0.1125;-0.0330;-1.1113;1.118
12.399000;-0.1178;-0.0060;-1.1119;1.118
12.404000;-0.1291;0.0503;-1.1556;1.164
12.408000;-0.1106;0.0788;-1.2184;1.226
12.415000;-0.0811;0.1248;-1.2479;1.257
12.418000;-0.0549;0.1648;-1.2558;1.268
12.423000;-0.0634;0.1988;-1.3092;1.326
12.467000;-0.0614;0.2675;-1.3818;1.409
12.469000;-0.0490;0.3638;-1.4280;1.474
12.470000;-0.0671;0.3759;-1.5292;1.576
12.470000;-0.1347;0.4739;-1.6350;1.708
12.470000;-0.2044;0.5005;-1.6786;1.764
12.471000;-0.2667;0.5758;-1.7197;1.833
12.471000;-0.3431;0.6116;-1.6818;1.822
12.472000;-0.3881;0.6273;-1.5651;1.730
12.472000;-0.4139;0.5990;-1.4269;1.602
12.472000;-0.4541;0.5698;-1.2267;1.427
12.477000;-0.4870;0.5178;-1.0029;1.229
12.482000;-0.5082;0.4808;-0.7697;1.040
12.487000;-0.5199;0.4157;-0.5559;0.867
12.491000;-0.5370;0.3866;-0.3590;0.753
12.496000;-0.5305;0.3479;-0.1887;0.662
12.501000;-0.4910;0.2875;-0.0736;0.574
12.506000;-0.5188;0.2601;0.0198;0.581
12.513000;-0.4633;0.2511;0.0654;0.531
12.516000;-0.4366;0.2247;0.1299;0.508
12.521000;-0.4195;0.2022;0.1513;0.490
12.525000;-0.3977;0.1643;0.1966;0.473
12.557000;-0.4023;0.1377;0.2011;0.470
12.558000;-0.3831;0.1079;0.1913;0.442
12.558000;-0.3502;0.1397;0.2006;0.427
12.558000;-0.3540;0.1497;0.1501;0.413
12.559000;-0.3897;0.1522;0.1069;0.432
12.559000;-0.3995;0.1592;0.1115;0.444
12.564000;-0.3957;0.1897;0.1304;0.458
12.566000;-0.3950;0.2032;0.1279;0.462
12.570000;-0.3781;0.2257;0.0943;0.450
12.575000;-0.3857;0.2857;0.0726;0.485
12.580000;-0.4200;0.3090;0.0438;0.523
12.585000;-0.4259;0.3409;-0.0567;0.548
12.589000;-0.4369;0.4150;-0.1714;0.626
12.596000;-0.4577;0.4594;-0.2741;0.704
12.599000;-0.4570;0.5485;-0.4220;0.829
12.604000;-0.4586;0.6390;-0.5459;0.957
12.639000;-0.4408;0.6931;-0.6600;1.054
12.640000;-0.4559;0.7299;-0.7980;1.174
12.640000;-0.4369;0.7689;-0.8688;1.240
12.641000;-0.4268;0.7601;-0.9731;1.306
12.641000;-0.3778;0.7944;-0.9744;1.313
12.641000;-0.3810;0.8026;-0.9710;1.316
12.642000;-0.3764;0.8085;-0.9437;1.298
12.644000;-0.3833;0.8263;-0.9355;1.306
12.648000;-0.3875;0.8463;-0.8891;1.287
12.653000;-0.3962;0.8708;-0.8953;1.310
12.658000;-0.3929;0.8736;-0.8466;1.278
12.663000;-0.4087;0.9001;-0.8051;1.275
12.668000;-0.4314;0.9051;-0.7684;1.263
12.673000;-0.3922;0.9121;-0.6744;1.200
12.677000;-0.3697;0.9190;-0.6068;1.162
12.682000;-0.3136;0.9015;-0.5345;1.094
12.687000;-0.3266;0.8837;-0.4862;1.060
12.692000;-0.3415;0.9011;-0.4403;1.059
12.697000;-0.3580;0.8848;-0.4065;1.037
12.702000;-0.3426;0.9160;-0.3536;1.040
12.707000;-0.3381;0.8826;-0.3222;0.999
12.714000;-0.3830;0.9209;-0.2934;1.040
12.717000;-0.4079;0.8710;-0.2980;1.007
12.722000;-0.4531;0.8217;-0.1449;0.949
12.726000;-0.5208;0.7324;0.0080;0.899
12.765000;-0.5394;0.6367;0.1702;0.852
12.766000;-0.5547;0.5322;0.3490;0.844
12.766000;-0.6149;0.3972;0.5203;0.898
12.767000;-0.6317;0.2915;0.7321;1.010
12.767000;-0.6125;0.2052;0.9437;1.144
12.767000;-0.5820;0.1573;1.1956;1.339
12.767000;-0.4977;0.1978;1.3923;1.492
12.768000;-0.3484;0.2282;1.5769;1.631
12.771000;-0.2131;0.2746;1.6227;1.659
12.776000;0.0036;0.3038;1.5681;1.597
12.781000;0.1611;0.3230;1.4276;1.473
12.786000;0.3178;0.2584;1.2371;1.303
12.790000;0.3552;0.2256;1.1282;1.204
12.798000;0.3886;0.2062;1.0217;1.112
12.801000;0.3849;0.1769;0.9440;1.035
12.804000;0.3131;0.1840;0.9571;1.024
12.810000;0.2486;0.1593;1.0729;1.113
12.841000;0.0938;0.0337;1.3557;1.359
12.842000;-0.0476;-0.1327;1.7910;1.797
12.842000;-0.2657;-0.3334;2.3714;2.409
12.843000;-0.3231;-0.5784;2.9821;3.055
12.844000;-0.3085;-0.8836;3.6493;3.767
12.844000;-0.2762;-1.2479;4.2560;4.444
12.845000;-0.2653;-1.6297;4.7975;5.074
12.850000;-0.1157;-1.8964;5.2429;5.577
12.854000;-0.0182;-2.0924;5.6234;6.000
12.859000;-0.0507;-2.4528;5.8603;6.353
12.864000;0.0570;-2.4241;5.4398;5.956
12.868000;0.4636;-2.2193;5.4312;5.885
12.873000;0.6006;-1.9796;5.1239;5.526
12.878000;0.5228;-1.8267;4.5829;4.961
12.883000;0.3748;-1.6950;3.9040;4.273
12.888000;0.2857;-1.5214;3.1446;3.505
12.893000;0.3101;-1.2756;2.3527;2.694
12.898000;0.2784;-0.9922;1.5928;1.897
12.903000;0.3677;-0.7392;0.9891;1.288
12.908000;0.2630;-0.5064;0.4696;0.739
12.914000;0.1325;-0.3099;-0.0206;0.338
12.917000;0.0004;-0.1182;-0.4387;0.454
12.922000;-0.1135;0.0834;-0.8563;0.868
12.971000;-0.2614;0.2379;-1.2401;1.290
12.971000;-0.3537;0.3626;-1.5351;1.617
12.972000;-0.3705;0.4025;-1.7558;1.839
12.972000;-0.3418;0.4056;-1.9188;1.991
12.972000;-0.3365;0.4314;-2.0220;2.095
12.972000;-0.2105;0.3028;-1.9219;1.957
12.973000;-0.0881;0.2015;-2.1112;2.123
12.973000;0.0650;0.0651;-1.8891;1.891
12.973000;0.1985;-0.1264;-1.6649;1.682
12.974000;0.3843;-0.2585;-1.4100;1.484
12.976000;0.5402;-0.4684;-1.1529;1.357
12.981000;0.6494;-0.6158;-0.9319;1.292
12.986000;0.7208;-0.7657;-0.7494;1.291
12.991000;0.7809;-0.8567;-0.5957;1.303
12.998000;0.7768;-0.9247;-0.5474;1.326
13.001000;0.7845;-0.9391;-0.5373;1.336
13.005000;0.7414;-0.9551;-0.5678;1.336
13.037000;0.6546;-0.9267;-0.6413;1.303
13.037000;0.5912;-0.9114;-0.7553;1.323
13.037000;0.4745;-0.8537;-0.8095;1.269
13.038000;0.3831;-0.8367;-0.8061;1.223
13.038000;0.3169;-0.8600;-0.7765;1.201
13.038000;0.2542;-0.8305;-0.7494;1.147
13.040000;0.2071;-0.8205;-0.6409;1.062
13.046000;0.1735;-0.7969;-0.6043;1.015
13.050000;0.1464;-0.7550;-0.5988;0.975
13.055000;0.1452;-0.7077;-0.5814;0.927
13.059000;0.1392;-0.6482;-0.6117;0.902
13.064000;0.1744;-0.6028;-0.6133;0.877
13.069000;0.1867;-0.6052;-0.6101;0.879
13.074000;0.1809;-0.5595;-0.6882;0.905
13.079000;0.2263;-0.5930;-0.7327;0.969
13.085000;0.1626;-0.4881;-0.8345;0.980
13.089000;0.3222;-0.4052;-1.0342;1.157
13.094000;0.2530;-0.3611;-1.1691;1.249
13.099000;0.2250;-0.3553;-1.4472;1.507
13.104000;0.2404;-0.3200;-1.7942;1.838
13.108000;0.2177;-0.2423;-2.1096;2.135
13.117000;0.1567;-0.0833;-2.3553;2.362
13.118000;0.0572;0.1314;-2.5482;2.552
13.123000;-0.0762;0.3500;-2.7622;2.785
13.163000;-0.2147;0.5179;-2.9378;2.991
13.164000;-0.3394;0.6909;-3.0223;3.119
13.164000;-0.4770;0.7909;-3.1306;3.264
13.165000;-0.5462;0.7969;-3.2006;3.343
13.165000;-0.5686;0.8314;-3.0937;3.254
13.165000;-0.5556;0.8078;-2.9870;3.144
13.166000;-0.5067;0.7952;-2.7729;2.929
13.166000;-0.4549;0.7569;-2.5017;2.653
13.171000;-0.3951;0.6948;-2.2333;2.372
13.173000;-0.3290;0.6106;-1.9604;2.080
13.177000;-0.2566;0.4967;-1.6903;1.780
13.185000;-0.2206;0.3711;-1.4182;1.482
13.187000;-0.2160;0.2578;-1.1726;1.220
13.192000;-0.2041;0.1631;-0.9083;0.945
13.198000;-0.1920;0.0963;-0.6994;0.732
13.201000;-0.2184;0.1071;-0.5289;0.582
13.206000;-0.2571;0.1164;-0.3586;0.456
13.211000;-0.2538;0.1169;-0.2245;0.358
13.233000;-0.2324;0.1537;-0.1096;0.299
13.234000;-0.2127;0.1791;-0.0331;0.280
13.235000;-0.1927;0.2122;-0.0117;0.287
13.235000;-0.1659;0.2343;0.0025;0.287
13.236000;-0.0970;0.2816;-0.0191;0.298
13.241000;-0.0131;0.2947;-0.0335;0.297
13.247000;0.0396;0.3600;-0.0884;0.373
13.251000;0.1039;0.4084;-0.1839;0.460
13.255000;0.1559;0.4712;-0.3175;0.589
13.260000;0.2197;0.5250;-0.4006;0.696
13.265000;0.2863;0.5840;-0.4574;0.795
13.271000;0.3560;0.6316;-0.4662;0.862
13.275000;0.3501;0.6679;-0.4392;0.873
13.280000;0.4009;0.6994;-0.3810;0.892
13.285000;0.4397;0.7497;-0.2991;0.919
13.290000;0.4790;0.7897;-0.2435;0.955
13.295000;0.5169;0.8237;-0.2001;0.993
13.300000;0.5104;0.8660;-0.2235;1.030
13.305000;0.4187;0.8832;-0.2590;1.011
13.309000;0.3450;0.9306;-0.3231;1.044
13.316000;0.3058;0.9058;-0.4206;1.044
13.319000;0.2987;0.9003;-0.4607;1.055
13.324000;0.2853;0.8142;-0.3669;0.938
13.370000;0.3040;0.7621;-0.2182;0.849
13.370000;0.3758;0.7082;-0.0674;0.805
13.371000;0.4027;0.6422;0.0785;0.762
13.371000;0.4441;0.5693;0.1597;0.739
13.371000;0.5282;0.4792;0.2551;0.757
13.372000;0.6169;0.3723;0.3193;0.788
13.372000;0.6957;0.2344;0.3714;0.823
13.372000;0.7144;0.1350;0.4857;0.874
13.373000;0.7587;0.0741;0.6189;0.982
13.373000;0.7519;0.0058;0.7425;1.057
13.378000;0.6630;-0.0194;0.8707;1.095
13.383000;0.6806;-0.0353;1.0537;1.255
13.388000;0.7186;0.0225;1.2412;1.434
13.393000;0.7814;0.1060;1.4382;1.640
13.399000;0.8142;0.2669;1.5704;1.789
13.403000;0.8434;0.3948;1.6402;1.886
13.411000;0.8123;0.3961;1.6981;1.924
13.411000;0.7471;0.5313;1.3831;1.659
13.435000;0.8163;0.7030;1.2715;1.667
13.436000;0.8240;0.7947;1.1028;1.590
13.436000;0.7854;0.8095;0.8721;1.426
13.437000;0.7103;0.8294;0.6153;1.253
13.437000;0.6115;0.8816;0.3541;1.130
13.442000;0.4321;0.9116;0.0740;1.012
13.448000;0.2059;0.9422;-0.1270;0.973
13.452000;-0.2120;0.7908;-0.2681;0.862
13.456000;-0.4284;0.6566;-0.1940;0.808
13.461000;-0.7787;0.4823;0.0639;0.918
13.466000;-1.2696;0.1772;0.5532;1.396
13.472000;-1.5244;-0.1337;1.3455;2.038
13.476000;-1.5042;-0.5759;2.1991;2.726
13.481000;-1.4194;-1.0622;3.0877;3.560
13.486000;-1.3768;-1.4894;3.9252;4.418
13.491000;-1.1822;-1.8597;4.7044;5.195
13.501000;-0.8575;-2.0729;5.2367;5.697
13.503000;-0.5217;-2.1717;5.6059;6.034
13.505000;-0.3056;-2.1938;5.6088;6.030
13.510000;-0.1571;-2.2354;5.2244;5.685
13.556000;-0.0781;-2.1743;4.5080;5.006
13.557000;-0.0583;-2.0166;3.6203;4.144
13.557000;-0.0746;-1.6795;2.7670;3.238
13.558000;-0.0925;-1.2884;2.1179;2.481
13.558000;-0.0900;-0.9115;1.5198;1.774
13.559000;-0.0568;-0.5962;0.9009;1.082
13.559000;-0.0659;-0.3226;0.3164;0.457
13.559000;-0.1284;-0.1118;-0.2196;0.278
13.560000;-0.1020;0.0300;-0.7046;0.713
13.560000;-0.0841;0.1654;-1.0885;1.104
13.565000;-0.0618;0.3022;-1.3238;1.359
13.569000;-0.1016;0.4404;-1.4607;1.529
13.574000;-0.1690;0.5491;-1.4851;1.592
13.579000;-0.2257;0.6013;-1.4975;1.629
13.585000;-0.3099;0.5972;-1.4885;1.633
13.589000;-0.4191;0.5814;-1.4485;1.616
13.594000;-0.5085;0.5017;-1.4157;1.586
13.602000;-0.6118;0.4631;-1.3734;1.573
13.606000;-0.6914;0.3845;-1.2595;1.487
13.611000;-0.7314;0.3018;-1.1912;1.430
13.613000;-0.7251;0.2296;-0.8912;1.172
13.650000;-0.6829;0.0866;-1.0718;1.274
13.651000;-0.6654;0.0021;-0.9583;1.167
13.651000;-0.6275;-0.1337;-0.7995;1.025
13.651000;-0.5891;-0.2728;-0.7675;1.005
13.652000;-0.5432;-0.3578;-0.6733;0.936
13.652000;-0.4901;-0.4224;-0.5960;0.880
13.652000;-0.3919;-0.4595;-0.5331;0.806
13.652000;-0.3010;-0.5243;-0.4846;0.775
13.657000;-0.2124;-0.5858;-0.5197;0.811
13.662000;-0.1403;-0.6492;-0.5667;0.873
13.667000;-0.0460;-0.7644;-0.6470;1.003
13.672000;0.0160;-0.8141;-0.6842;1.064
13.677000;0.1180;-0.8798;-0.6616;1.107
13.682000;0.1525;-0.8898;-0.6653;1.121
13.687000;0.2104;-0.9231;-0.6115;1.127
13.692000;0.2899;-0.9540;-0.5459;1.137
13.697000;0.3214;-0.9421;-0.5377;1.131
13.702000;0.2931;-0.9548;-0.5509;1.141
13.706000;0.2864;-0.9180;-0.5929;1.130
13.711000;0.3159;-0.8821;-0.6491;1.140
13.751000;0.3864;-0.8494;-0.7195;1.178
13.752000;0.4267;-0.8628;-0.7828;1.241
13.752000;0.4750;-0.8291;-0.8555;1.283
13.752000;0.4885;-0.7795;-0.8923;1.282
13.752000;0.4888;-0.7520;-0.9793;1.328
13.753000;0.4733;-0.6893;-1.0185;1.318
13.753000;0.4325;-0.5938;-1.0696;1.298
13.753000;0.3616;-0.4964;-1.0871;1.249
13.755000;0.3177;-0.4043;-1.1525;1.262
13.760000;0.2506;-0.3197;-1.1605;1.230
13.765000;0.1768;-0.2425;-1.2282;1.264
13.770000;0.1128;-0.1653;-1.2910;1.306
13.775000;0.0010;-0.1043;-1.2821;1.286
13.779000;-0.0437;-0.0405;-1.2803;1.282
13.785000;-0.0859;0.0381;-1.2332;1.237
13.790000;-0.1042;0.0768;-1.2434;1.250
13.794000;-0.1462;0.1208;-1.2082;1.223
13.801000;-0.2021;0.1773;-1.2209;1.250
13.804000;-0.3262;0.1863;-1.1667;1.226
13.813000;-0.3894;0.2101;-1.0863;1.173
13.813000;-0.4372;0.2297;-0.9940;1.110
13.848000;-0.4507;0.2479;-0.8852;1.024
13.849000;-0.4682;0.2404;-0.7288;0.899
13.849000;-0.4803;0.1876;-0.5749;0.772
13.849000;-0.4775;0.1184;-0.4213;0.648
13.849000;-0.4623;0.0972;-0.3085;0.564
13.850000;-0.4658;0.0733;-0.2054;0.514
13.850000;-0.4761;0.0753;-0.1694;0.511
13.853000;-0.4716;0.0435;-0.0951;0.483
13.859000;-0.4408;0.0043;-0.0521;0.444
13.863000;-0.4341;-0.0020;-0.0426;0.436
13.869000;-0.4349;0.0011;-0.0211;0.435
13.873000;-0.4312;0.0089;-0.0451;0.434
13.878000;-0.4443;0.0142;-0.0427;0.447
13.885000;-0.4217;0.0599;-0.0427;0.428
13.888000;-0.4305;0.1056;-0.0260;0.444
13.892000;-0.4467;0.1298;-0.0762;0.471
13.897000;-0.4416;0.1396;-0.0928;0.472
13.902000;-0.4465;0.1473;-0.1357;0.489
13.907000;-0.4854;0.1530;-0.1618;0.534
13.912000;-0.5059;0.1760;-0.1759;0.564
13.918000;-0.5031;0.2070;-0.1660;0.569
13.923000;-0.4819;0.2339;-0.0916;0.543
13.968000;-0.4973;0.2830;0.0043;0.572
13.969000;-0.4513;0.3060;0.0547;0.548
13.969000;-0.4084;0.3170;0.0836;0.524
13.970000;-0.3901;0.3088;0.1148;0.511
13.970000;-0.3222;0.3119;0.0934;0.458
13.970000;-0.2522;0.3527;0.0602;0.438
13.970000;-0.1634;0.3450;0.0317;0.383
13.970000;-0.0961;0.3820;0.0056;0.394
13.971000;-0.0238;0.3679;-0.0611;0.374
13.972000;-0.0110;0.4033;-0.1110;0.418
13.976000;0.0740;0.4475;-0.1441;0.476
13.980000;0.1280;0.5149;-0.1868;0.563
13.985000;0.1200;0.5913;-0.2605;0.657
13.990000;0.1029;0.6243;-0.2935;0.697
13.995000;0.1127;0.6593;-0.3241;0.743
14.002000;0.0873;0.6750;-0.2926;0.741
14.005000;0.0244;0.6714;-0.2803;0.728
14.011000;-0.0042;0.6866;-0.2082;0.718
14.055000;-0.0318;0.7089;-0.1148;0.719
14.056000;-0.0514;0.7166;-0.0096;0.719
14.056000;-0.0750;0.7095;0.0739;0.717
14.057000;-0.0856;0.6494;0.1811;0.680
14.057000;-0.1456;0.6248;0.2882;0.703
14.057000;-0.1807;0.6066;0.3593;0.728
14.058000;-0.2179;0.5255;0.4398;0.719
14.058000;-0.2427;0.4965;0.4891;0.738
14.058000;-0.2646;0.4168;0.5622;0.748
14.059000;-0.3129;0.3725;0.6185;0.787
14.064000;-0.3277;0.2754;0.6939;0.815
14.068000;-0.3499;0.2066;0.7333;0.838
14.073000;-0.3582;0.1284;0.8324;0.915
14.079000;-0.3288;0.0453;0.9028;0.962
14.086000;-0.2550;0.0193;1.0520;1.083
14.092000;-0.1732;0.0125;1.1508;1.164
14.094000;-0.0495;0.0075;1.1731;1.174
14.101000;0.0349;0.0592;1.1715;1.174
14.103000;0.0829;0.1339;1.1293;1.140
14.111000;0.1260;0.1194;1.0011;1.016
14.112000;0.1190;0.1404;0.7966;0.818
14.148000;0.0672;0.0781;0.5732;0.582
14.149000;-0.0264;-0.0071;0.4409;0.442
14.149000;-0.1090;-0.1023;0.3828;0.411
14.149000;-0.1920;-0.1976;0.4562;0.533
14.150000;-0.2515;-0.2518;0.6060;0.703
14.150000;-0.3116;-0.3322;0.8511;0.965
14.150000;-0.3630;-0.4744;1.1198;1.269
14.151000;-0.4292;-0.6667;1.4503;1.653
14.157000;-0.4317;-0.9405;1.8305;2.103
14.161000;-0.4349;-1.2246;2.2677;2.614
14.171000;-0.2576;-1.4555;2.6350;3.021
14.172000;-0.1552;-1.6556;3.0066;3.436
14.177000;-0.0587;-1.8191;3.3587;3.820
14.181000;0.1053;-1.9422;3.6385;4.126
14.186000;0.2924;-1.9997;3.7317;4.244
14.191000;0.4685;-1.9950;3.6119;4.153
14.196000;0.5874;-1.9643;3.3227;3.904
14.201000;0.6039;-1.8618;2.8211;3.434
14.205000;0.5368;-1.6987;2.1768;2.813
14.210000;0.3462;-1.4470;1.4831;2.101
14.247000;0.1134;-1.1600;0.8573;1.447
14.248000;-0.1135;-0.9035;0.3972;0.993
14.248000;-0.3277;-0.6232;-0.0001;0.704
14.248000;-0.4720;-0.3905;-0.2559;0.664
14.248000;-0.6110;-0.2067;-0.4683;0.797
14.248000;-0.7354;-0.0694;-0.6374;0.976
14.249000;-0.7923;0.0217;-0.7824;1.114
14.258000;-0.8342;0.0979;-0.8746;1.213
14.259000;-0.8250;0.1155;-0.8974;1.224
14.259000;-0.7503;0.0865;-0.9487;1.213
14.264000;-0.6192;0.0103;-0.8829;1.078
14.271000;-0.4819;-0.0918;-0.8482;0.980
14.274000;-0.2611;-0.2470;-0.7538;0.835
14.279000;-0.0766;-0.4196;-0.7622;0.873
14.288000;0.1032;-0.4600;-0.6510;0.804
14.289000;0.2997;-0.5696;-0.3990;0.757
14.294000;0.4942;-0.6485;-0.4698;0.941
14.301000;0.6219;-0.6921;-0.4425;1.030
14.304000;0.6758;-0.7153;-0.4177;1.069
14.309000;0.7444;-0.6845;-0.4861;1.122
14.314000;0.7516;-0.6240;-0.5879;1.140
14.321000;0.7263;-0.5788;-0.7134;1.171
14.324000;0.6476;-0.5107;-0.8269;1.168
14.328000;0.5345;-0.4813;-0.8924;1.146
14.379000;0.3917;-0.4257;-0.9459;1.109
14.381000;0.2935;-0.4128;-0.8799;1.015
14.381000;0.2011;-0.3852;-0.8187;0.927
14.381000;0.1478;-0.3548;-0.6811;0.782
14.382000;0.1475;-0.3507;-0.5556;0.673
14.382000;0.1255;-0.3705;-0.4804;0.620
14.382000;0.1104;-0.3908;-0.3957;0.567
14.383000;0.1141;-0.3970;-0.3423;0.536
14.383000;0.1173;-0.4018;-0.2745;0.501
14.383000;0.1202;-0.4025;-0.2236;0.476
14.384000;0.1490;-0.3922;-0.1512;0.446
14.391000;0.1224;-0.3640;-0.1650;0.418
14.393000;0.1126;-0.3062;-0.1860;0.376
14.397000;0.0288;-0.2478;-0.2262;0.337
14.403000;-0.0430;-0.1218;-0.3404;0.364
14.409000;-0.1697;-0.0258;-0.4690;0.499
14.412000;-0.2200;0.0931;-0.5878;0.634
14.447000;-0.3016;0.1682;-0.6969;0.778
14.448000;-0.3405;0.3051;-0.8155;0.935
14.448000;-0.3993;0.3725;-0.9004;1.053
14.449000;-0.3992;0.4160;-0.9900;1.146
14.450000;-0.3663;0.4528;-1.0843;1.231
14.450000;-0.4084;0.5282;-1.1616;1.340
14.451000;-0.4182;0.5540;-1.2197;1.403
14.451000;-0.4047;0.5926;-1.2251;1.420
14.455000;-0.3969;0.6012;-1.2352;1.430
14.460000;-0.3346;0.6081;-1.2213;1.405
14.465000;-0.2821;0.6154;-1.1716;1.353
14.470000;-0.2082;0.5754;-1.1171;1.274
14.475000;-0.1727;0.5643;-1.0483;1.203
14.480000;-0.1105;0.5552;-0.9892;1.140
14.485000;-0.0813;0.5552;-0.9612;1.113
14.490000;-0.0014;0.5855;-0.9573;1.122
14.494000;0.0386;0.5936;-0.9295;1.104
14.503000;0.0652;0.5792;-0.8946;1.068
14.505000;0.1286;0.5925;-0.9267;1.107
14.509000;0.1330;0.6168;-0.9517;1.142
14.514000;0.0690;0.6379;-0.9887;1.179
14.560000;0.0509;0.6850;-1.0328;1.240
14.561000;0.0309;0.7366;-1.0411;1.276
14.561000;-0.0010;0.7764;-1.0326;1.292
14.562000;-0.0143;0.8472;-1.0265;1.331
14.562000;-0.0234;0.8827;-1.0227;1.351
14.562000;-0.0213;0.9379;-1.0309;1.394
14.563000;-0.0219;0.9577;-1.0007;1.385
14.563000;0.0106;0.9567;-0.9634;1.358
14.563000;0.0427;0.9778;-0.9094;1.336
14.564000;0.0461;0.9970;-0.8315;1.299
14.568000;0.0400;1.0046;-0.7823;1.274
14.573000;0.0392;1.0289;-0.7261;1.260
14.578000;0.0321;1.0293;-0.6676;1.227
14.584000;0.0116;1.0297;-0.6378;1.211
14.591000;0.0113;1.0040;-0.5579;1.149
14.593000;-0.0238;0.9691;-0.4447;1.066
14.598000;-0.0603;0.9152;-0.2791;0.959
14.603000;-0.0671;0.8660;-0.1160;0.876
14.607000;-0.0902;0.8191;0.0539;0.826
14.612000;-0.1248;0.7671;0.1591;0.793
14.619000;-0.1617;0.7602;0.2259;0.809
14.622000;-0.1629;0.6905;0.3022;0.771
14.626000;-0.1789;0.6468;0.3544;0.759
14.632000;-0.1931;0.6192;0.3779;0.751
14.662000;-0.2077;0.5939;0.3846;0.737
14.663000;-0.1894;0.5351;0.4248;0.709
14.663000;-0.1552;0.5357;0.4985;0.748
14.663000;-0.1218;0.5218;0.5481;0.766
14.664000;-0.0820;0.4980;0.5666;0.759
14.664000;-0.0286;0.5022;0.5994;0.782
14.670000;0.0146;0.4937;0.5700;0.754
14.671000;0.0405;0.4867;0.5382;0.727
14.676000;0.0707;0.4885;0.4968;0.700
14.681000;0.0937;0.5325;0.4221;0.686
14.688000;0.0617;0.6214;0.3736;0.728
14.691000;0.0134;0.6880;0.2846;0.745
14.695000;-0.0365;0.7422;0.2267;0.777
14.702000;-0.0280;0.7433;0.2095;0.773
14.707000;-0.0759;0.7108;0.1779;0.737
14.710000;-0.0438;0.6997;0.1798;0.724
14.715000;-0.0039;0.6766;0.1984;0.705
14.754000;0.0270;0.6559;0.1954;0.685
14.754000;0.0467;0.6163;0.2426;0.664
14.755000;0.1143;0.5887;0.2229;0.640
14.755000;0.1845;0.5113;0.2581;0.602
14.755000;0.2881;0.4939;0.3005;0.646
14.755000;0.3414;0.5056;0.3811;0.719
14.756000;0.3992;0.5198;0.4209;0.779
14.756000;0.4995;0.5369;0.4799;0.876
14.759000;0.5448;0.4969;0.5579;0.925
14.764000;0.5709;0.5313;0.6048;0.987
14.770000;0.5568;0.4775;0.6373;0.972
14.774000;0.4403;0.4434;0.7128;0.948
14.779000;0.3364;0.3837;0.7763;0.929
14.785000;0.1973;0.3367;0.8516;0.937
14.788000;0.1137;0.2955;0.9627;1.013
14.795000;0.1070;0.2695;1.0546;1.094
14.799000;0.0504;0.2326;1.1130;1.138
14.804000;-0.0111;0.1608;1.1833;1.194
14.811000;-0.0394;0.0691;1.2368;1.239
14.814000;-0.1328;-0.0305;1.2808;1.288
14.822000;-0.1646;-0.1592;1.2747;1.295
14.824000;-0.1562;-0.3645;1.2997;1.359
14.832000;-0.1572;-0.5315;1.3942;1.500
14.832000;-0.1555;-0.7130;1.5985;1.757
14.881000;-0.1530;-0.8829;1.8266;2.035
14.882000;-0.1405;-1.0659;2.0927;2.353
14.882000;-0.1445;-1.2413;2.3777;2.686
14.882000;-0.0983;-1.3909;2.6264;2.974
14.883000;-0.0406;-1.4773;2.7863;3.154
14.883000;-0.0145;-1.5303;2.8647;3.248
14.883000;-0.0036;-1.5337;2.8329;3.221
14.884000;0.0467;-1.4951;2.7293;3.112
14.884000;0.1025;-1.4004;2.5348;2.898
14.884000;0.1231;-1.2713;2.2065;2.550
14.888000;0.1250;-1.1098;1.8618;2.171
14.892000;0.0967;-0.8917;1.4432;1.699
14.897000;0.0523;-0.7047;1.0466;1.263
14.904000;-0.0031;-0.4241;0.6696;0.793
14.911000;-0.0788;-0.1972;0.2834;0.354
14.911000;-0.1216;0.0336;-0.0544;0.137
14.916000;-0.1936;0.2590;-0.3680;0.490
14.937000;-0.2437;0.4079;-0.7026;0.848
14.938000;-0.2642;0.4810;-0.9578;1.104
14.939000;-0.3047;0.5672;-1.1195;1.291
14.939000;-0.3215;0.5642;-1.2236;1.385
14.940000;-0.3715;0.5392;-1.2965;1.452
14.945000;-0.4730;0.5427;-1.2138;1.411
14.950000;-0.5471;0.3602;-0.9090;1.120
14.955000;-0.5701;0.2091;-0.9081;1.092
14.960000;-0.5904;-0.0088;-0.5581;0.812
14.965000;-0.6467;-0.2388;-0.0867;0.695
14.971000;-0.6925;-0.4623;0.2073;0.858
14.975000;-0.6781;-0.6796;0.4987;1.082
14.980000;-0.6089;-0.8629;0.7276;1.282
14.985000;-0.5810;-1.0313;0.9707;1.531
14.989000;-0.5329;-1.1994;1.1608;1.752
14.995000;-0.4673;-1.3388;1.3317;1.945
15.000000;-0.3539;-1.4957;1.5454;2.180
15.005000;-0.2214;-1.5868;1.6799;2.321
15.009000;-0.1210;-1.6653;1.7185;2.396
15.014000;-0.0288;-1.6838;1.6495;2.357
15.023000;0.0478;-1.6429;1.4395;2.185
15.027000;0.1355;-1.6165;1.1317;1.978
15.029000;0.1489;-1.4897;0.7333;1.667
15.034000;0.1630;-1.3316;0.3593;1.389
15.084000;0.1238;-1.1466;-0.0310;1.154
15.086000;0.0986;-0.9416;-0.4066;1.030
15.086000;0.0712;-0.8142;-0.7267;1.094
15.086000;0.0538;-0.6610;-1.0010;1.201
15.086000;-0.0084;-0.5155;-1.2582;1.360
15.087000;-0.0579;-0.4086;-1.4578;1.515
15.087000;-0.0804;-0.2803;-1.6379;1.664
15.087000;-0.0711;-0.1567;-1.8513;1.859
15.088000;-0.0759;-0.0380;-2.0022;2.004
15.088000;-0.0780;0.0047;-2.1816;2.183
15.088000;-0.0706;0.0455;-2.3297;2.331
15.092000;-0.0606;0.1348;-2.3843;2.389
15.097000;-0.0457;0.1867;-2.4818;2.489
15.102000;-0.0165;0.2586;-2.5529;2.566
15.107000;0.0078;0.2981;-2.5807;2.598
15.112000;0.0706;0.3292;-2.5584;2.580
15.116000;0.1119;0.3397;-2.5384;2.563
15.122000;0.1797;0.3584;-2.4896;2.522
15.127000;0.1902;0.3824;-2.4649;2.502
15.132000;0.2056;0.4167;-2.4664;2.510
15.171000;0.2162;0.4778;-2.4631;2.518
15.172000;0.2059;0.5349;-2.4479;2.514
15.173000;0.1555;0.6309;-2.4470;2.532
15.173000;0.1610;0.6895;-2.3864;2.489
15.173000;0.1362;0.7514;-2.3736;2.493
15.174000;0.1124;0.7569;-2.2987;2.423
15.174000;0.0828;0.7513;-2.1522;2.281
15.174000;0.1000;0.7372;-2.0394;2.171
15.175000;0.0615;0.7477;-1.8814;2.025
15.181000;0.0341;0.7587;-1.7021;1.864
15.186000;0.0199;0.7678;-1.5541;1.734
15.192000;0.0212;0.7508;-1.4254;1.611
15.195000;-0.0148;0.7126;-1.3209;1.501
15.200000;-0.0477;0.6747;-1.1973;1.375
15.206000;-0.0732;0.6470;-1.0978;1.276
15.210000;-0.0487;0.5914;-0.9650;1.133
15.215000;-0.0389;0.5630;-0.8513;1.021
15.222000;-0.0684;0.5403;-0.7497;0.927
15.224000;-0.1206;0.5065;-0.6242;0.813
15.231000;-0.1717;0.4975;-0.5059;0.730
15.234000;-0.2025;0.5107;-0.3662;0.660
15.275000;-0.2535;0.5007;-0.2123;0.600
15.275000;-0.3008;0.5124;-0.1110;0.604
15.276000;-0.3034;0.5072;0.0761;0.596
15.276000;-0.3136;0.5111;0.1866;0.628
15.276000;-0.3122;0.5571;0.3089;0.709
15.276000;-0.2752;0.5492;0.3665;0.715
15.277000;-0.2672;0.5947;0.4048;0.767
15.277000;-0.2427;0.6385;0.3594;0.772
15.278000;-0.2109;0.6400;0.3617;0.765
15.283000;-0.1765;0.6902;0.3114;0.777
15.289000;-0.1487;0.6865;0.2849;0.758
15.293000;-0.1803;0.7387;0.2584;0.803
15.298000;-0.2068;0.8206;0.2295;0.877
15.305000;-0.2401;0.9035;0.2197;0.960
15.311000;-0.2491;0.9614;0.1835;1.010
15.312000;-0.2771;0.9848;0.1282;1.031
15.357000;-0.3455;1.0553;0.0848;1.114
15.358000;-0.3705;1.1038;0.0869;1.168
15.358000;-0.4070;1.1187;0.0819;1.193
15.358000;-0.4240;1.1693;0.0983;1.248
15.358000;-0.4096;1.1794;0.1553;1.258
15.359000;-0.4621;1.2134;0.2194;1.317
15.359000;-0.4687;1.1879;0.2834;1.308
15.359000;-0.4917;1.1412;0.3283;1.285
15.360000;-0.5144;1.0946;0.4304;1.284
15.362000;-0.5271;1.0507;0.5468;1.296
15.366000;-0.5349;1.0094;0.6940;1.337
15.373000;-0.5111;0.9467;0.8387;1.364
15.376000;-0.5156;0.8841;0.9713;1.411
15.382000;-0.5054;0.7898;1.0893;1.437
15.391000;-0.5234;0.6976;1.1903;1.476
15.391000;-0.5215;0.6168;1.3056;1.535
15.396000;-0.4930;0.5423;1.4063;1.586
15.401000;-0.5099;0.4835;1.4878;1.645
15.406000;-0.5126;0.4094;1.5284;1.663
15.411000;-0.5347;0.3653;1.4950;1.629
15.416000;-0.5143;0.3539;1.5165;1.640
15.461000;-0.4899;0.3681;1.4903;1.611
15.462000;-0.4427;0.4654;1.3757;1.518
15.462000;-0.4421;0.5888;1.2900;1.485
15.463000;-0.5118;0.7148;1.1900;1.480
15.463000;-0.6036;0.8030;1.0497;1.453
15.463000;-0.6761;0.8470;0.9502;1.441
15.464000;-0.7839;0.8637;0.8867;1.465
15.464000;-0.8547;0.8061;0.8639;1.458
15.464000;-0.8282;0.7101;0.8962;1.412
15.465000;-0.7041;0.5116;0.9737;1.306
15.470000;-0.5610;0.3041;1.0894;1.263
15.474000;-0.4060;0.0566;1.3364;1.398
15.479000;-0.2679;-0.2403;1.6715;1.710
15.484000;-0.0470;-0.5607;2.1400;2.213
15.489000;0.1721;-0.9150;2.6295;2.790
15.494000;0.3145;-1.1610;3.0707;3.298
15.499000;0.4467;-1.3761;3.4683;3.758
15.506000;0.5487;-1.5638;3.7459;4.096
