time;ax;ay;az;aT
0.004000;0.1691;-0.1808;-0.1992;0.318
0.005000;0.2877;-0.3043;-0.4625;0.624
0.006000;0.3933;-0.2605;-0.3962;0.616
0.006000;0.3852;-0.2337;-0.1125;0.464
0.012000;0.1772;-0.1953;0.1993;0.331
0.017000;0.1667;-0.0890;0.6219;0.650
0.023000;0.0821;-0.0628;1.1235;1.128
0.026000;0.0359;-0.1355;1.3572;1.364
0.032000;0.0298;-0.2419;1.4204;1.441
0.037000;0.1682;-0.3216;1.2648;1.316
0.041000;0.2924;-0.3719;0.9351;1.048
0.046000;0.3830;-0.3048;0.5632;0.746
0.051000;0.4318;-0.1237;0.1425;0.471
0.056000;0.3645;0.1020;-0.1939;0.425
0.061000;0.2279;0.2583;-0.4894;0.598
0.065000;-0.0218;0.3220;-0.5215;0.613
0.072000;-0.2028;0.3338;-0.2543;0.466
0.075000;-0.2683;0.3337;0.0913;0.438
0.080000;-0.2721;0.2755;0.4009;0.557
0.086000;-0.2100;0.1781;0.6393;0.696
0.090000;-0.1399;0.0533;0.7028;0.719
0.095000;-0.0811;-0.0464;0.6923;0.699
0.100000;-0.0597;-0.0709;0.7177;0.724
0.105000;0.0219;-0.0566;0.6743;0.677
0.110000;0.0685;-0.0035;0.6361;0.640
0.115000;0.0681;0.0428;0.5201;0.526
0.120000;0.0044;0.0760;0.3529;0.361
0.124000;-0.0679;0.1179;0.2155;0.255
0.130000;-0.1534;0.1686;0.1576;0.277
0.134000;-0.2287;0.2071;0.0504;0.313
0.141000;-0.2866;0.2028;0.0579;0.356
0.144000;-0.2802;0.2131;0.0488;0.355
0.149000;-0.2575;0.2261;0.0515;0.347
0.154000;-0.2308;0.2297;0.0068;0.326
0.158000;-0.1762;0.2169;-0.0591;0.286
0.164000;-0.1009;0.1832;-0.1220;0.242
0.170000;-0.0570;0.1384;-0.1941;0.245
0.173000;0.0390;0.1208;-0.2420;0.273
0.178000;0.1467;0.0824;-0.2681;0.317
0.183000;0.2279;0.0664;-0.2656;0.356
0.189000;0.2379;0.0320;-0.2774;0.367
0.195000;0.2365;-0.0275;-0.2915;0.376
0.198000;0.1954;-0.0505;-0.2176;0.297
0.206000;0.1457;-0.0635;-0.1918;0.249
0.208000;0.0749;-0.0737;-0.1282;0.166
0.212000;0.0048;-0.0480;-0.1030;0.114
0.217000;-0.3333;0.0939;-0.3085;0.464
0.223000;-0.3240;0.1280;-0.1300;0.372
0.228000;-0.2699;0.1426;0.0307;0.307
0.233000;-0.2791;0.0781;-0.0189;0.290
0.238000;-0.2797;-0.0006;-0.0372;0.282
0.242000;-0.2472;-0.0247;-0.0434;0.252
0.247000;-0.1653;-0.0873;-0.0948;0.210
0.254000;-0.0890;-0.1525;-0.1553;0.235
0.259000;-0.0044;-0.1510;-0.2320;0.277
0.262000;0.0031;-0.0926;-0.2465;0.263
0.267000;-0.0360;-0.3272;0.5451;0.637
0.272000;-0.1334;-0.7122;0.2257;0.759
0.276000;-0.2026;-0.5814;0.0244;0.616
0.281000;0.0272;-0.2453;0.1405;0.284
0.287000;0.1974;-0.0350;0.2177;0.296
0.292000;-0.0051;0.0071;-0.0218;0.023
0.296000;-0.2420;-0.0312;-0.3480;0.425
0.301000;-0.3782;-0.0227;-0.3537;0.518
0.306000;-0.3414;0.0798;-0.3356;0.485
0.311000;-0.2137;0.0705;-0.3509;0.417
0.316000;-0.1331;0.0568;-0.4065;0.431
0.322000;-0.1327;0.0623;-0.4308;0.455
0.325000;-0.2309;0.0113;-0.4289;0.487
0.330000;-0.2395;-0.0056;-0.3793;0.449
0.338000;-0.2201;-0.0365;-0.2920;0.367
0.345000;-0.1518;-0.0030;-0.2004;0.251
0.346000;-0.1038;-0.0297;-0.1306;0.169
0.351000;-0.0567;-0.0452;-0.1111;0.133
0.356000;0.0107;-0.0996;-0.0701;0.122
0.360000;0.0214;-0.1139;-0.1173;0.165
0.365000;0.0968;-0.1714;-0.1309;0.236
0.370000;0.1243;-0.1718;-0.1111;0.239
0.378000;0.1540;-0.1394;-0.1628;0.264
0.379000;0.1787;-0.0527;-0.2403;0.304
0.385000;0.1797;-0.0187;-0.2222;0.286
0.390000;0.2614;-0.0066;-0.1566;0.305
0.394000;0.3424;0.0074;-0.3127;0.464
0.399000;0.3086;-0.0049;-0.4536;0.549
0.406000;0.2534;0.0120;-0.5796;0.633
0.409000;0.2862;0.1179;-0.6312;0.703
0.414000;0.3661;0.1791;-0.5875;0.715
0.420000;0.4023;0.1934;-0.7202;0.847
0.424000;0.2707;0.1510;-0.6523;0.722
0.429000;0.2155;0.1950;-0.4802;0.561
0.434000;0.2300;0.3232;-0.5923;0.713
0.439000;0.1775;0.3467;-0.4397;0.587
0.444000;0.1443;0.3753;-0.4046;0.570
0.448000;0.1590;0.3779;-0.4268;0.592
0.454000;0.1740;0.3425;-0.4156;0.566
0.458000;0.2325;0.3004;-0.3949;0.548
0.463000;0.2157;0.2564;-0.3672;0.497
0.468000;0.1740;0.1795;-0.2658;0.365
0.473000;0.1930;0.1531;-0.2530;0.353
0.478000;0.1964;0.1200;-0.1165;0.258
0.483000;0.1698;0.0515;-0.0212;0.179
0.489000;0.2537;0.0169;0.0713;0.264
0.492000;0.1783;-0.0866;0.1872;0.273
0.498000;0.2658;-0.0851;0.2501;0.375
0.502000;0.2364;-0.2192;0.3604;0.484
0.507000;0.1785;-0.3174;0.4487;0.578
0.515000;0.1377;-0.3106;0.5343;0.633
0.517000;-0.0763;-0.2236;0.8767;0.908
0.524000;-0.0343;-0.1028;0.6842;0.693
0.526000;-0.0212;-0.0528;0.4403;0.444
0.532000;-0.5575;-0.0179;0.4668;0.727
0.537000;-0.4670;-0.1435;0.6028;0.776
0.542000;-0.2087;-0.1429;0.5882;0.640
0.546000;-0.0441;-0.2148;0.6381;0.675
0.551000;0.0110;-0.2541;0.5926;0.645
0.560000;-0.0804;-0.3273;0.5284;0.627
0.561000;-0.1534;-0.3365;0.4575;0.588
0.566000;-0.2156;-0.2747;0.4679;0.584
0.571000;-0.2175;-0.2018;0.4141;0.509
0.576000;-0.1789;-0.1295;0.3820;0.441
0.581000;-0.1504;-0.1102;0.3000;0.353
0.585000;-0.1320;-0.0792;0.1518;0.216
0.590000;-0.1122;-0.0246;0.0590;0.129
0.594000;-0.1458;0.0511;-0.0691;0.169
0.600000;-0.1041;0.1105;-0.2086;0.258
0.607000;-0.0946;0.2107;-0.3286;0.402
0.610000;-0.0173;0.2307;-0.4148;0.475
0.615000;0.0182;0.2659;-0.4912;0.559
0.619000;0.0883;0.2829;-0.5292;0.607
0.630000;0.1168;0.2839;-0.5839;0.660
0.631000;0.1586;0.3121;-0.5908;0.687
0.635000;0.1663;0.3456;-0.5525;0.673
0.641000;0.1521;0.3725;-0.4930;0.636
0.644000;0.1829;0.3807;-0.4362;0.607
0.649000;0.2392;0.3890;-0.4488;0.640
0.654000;0.2426;0.3877;-0.3898;0.601
0.659000;0.3124;0.3339;-0.3502;0.576
0.664000;0.3892;0.2444;-0.3179;0.559
0.668000;0.5203;0.1885;-0.2929;0.626
0.673000;0.5960;0.1421;-0.3108;0.687
0.679000;0.6476;0.0883;-0.2905;0.715
0.683000;0.6754;0.0846;-0.2822;0.737
0.688000;0.6748;0.0737;-0.2882;0.737
0.694000;0.7031;0.1057;-0.3085;0.775
0.698000;0.6956;0.0901;-0.2930;0.760
0.703000;0.7192;0.0274;-0.2275;0.755
0.708000;0.7065;-0.0630;-0.1457;0.724
0.713000;0.6049;-0.1428;-0.1358;0.636
0.717000;0.5048;-0.2166;-0.0521;0.552
0.733000;0.3419;-0.2487;0.0215;0.423
0.734000;0.1546;-0.2395;0.1114;0.306
0.734000;0.0667;-0.2513;0.1652;0.308
0.740000;0.0185;-0.2752;0.2091;0.346
0.742000;-0.0133;-0.2469;0.2530;0.354
0.746000;-0.0807;-0.2148;0.2157;0.315
0.752000;-0.0857;-0.2651;0.2620;0.382
0.757000;-0.1214;-0.2095;0.2774;0.368
0.762000;-0.2916;-0.1820;0.2141;0.405
0.767000;-0.4069;-0.1682;0.1299;0.459
0.772000;-0.4689;-0.1442;0.0891;0.499
0.776000;-0.5606;-0.1243;0.0559;0.577
0.781000;-0.5824;-0.0485;0.0468;0.586
0.786000;-0.5803;-0.0073;0.0213;0.581
0.790000;-0.6168;0.0094;0.0031;0.617
0.796000;-0.6193;0.0144;-0.0341;0.620
0.801000;-0.6481;-0.0038;-0.0449;0.650
0.806000;-0.5920;-0.0399;-0.0415;0.595
0.811000;-0.6068;-0.0745;-0.0359;0.612
0.815000;-0.5596;-0.0836;-0.0042;0.566
0.821000;-0.5602;-0.0721;0.0151;0.565
0.825000;-0.5347;-0.0637;0.0317;0.539
0.830000;-0.4901;-0.0421;0.0076;0.492
0.835000;-0.4287;-0.0740;0.0024;0.435
0.840000;-0.3593;-0.0764;0.0090;0.367
0.845000;-0.2839;-0.0831;-0.0083;0.296
0.850000;-0.1946;-0.1037;-0.0494;0.226
0.856000;-0.1197;-0.1341;-0.0308;0.182
0.859000;-0.0158;-0.1430;-0.0479;0.152
0.865000;0.0626;-0.1596;-0.0815;0.190
0.870000;0.1777;-0.2125;-0.0840;0.289
0.875000;0.2579;-0.2565;-0.1149;0.381
0.879000;0.3750;-0.2820;-0.1098;0.482
0.884000;0.4285;-0.3296;-0.1071;0.551
0.894000;0.4946;-0.2989;-0.1734;0.603
0.895000;0.5611;-0.2925;-0.2203;0.670
0.899000;0.4985;-0.3315;-0.3053;0.672
0.904000;0.4816;-0.2340;-0.2421;0.588
0.908000;0.5028;-0.1317;-0.2555;0.579
0.913000;0.3730;-0.0984;-0.2021;0.436
0.918000;0.3291;-0.0601;-0.1967;0.388
0.925000;0.2797;-0.0261;-0.1628;0.325
0.928000;0.2251;0.0034;-0.1529;0.272
0.933000;0.2276;-0.0145;-0.1048;0.251
0.941000;0.2323;-0.0177;-0.0714;0.244
0.943000;0.2414;-0.0135;-0.0547;0.248
0.948000;0.2646;-0.0781;-0.0071;0.276
0.953000;0.3354;-0.0996;0.0570;0.355
0.957000;0.3132;-0.1330;0.1018;0.355
0.963000;0.3437;-0.1783;0.1370;0.411
0.968000;0.3670;-0.1593;0.2460;0.470
0.972000;0.3857;-0.1504;0.3093;0.517
0.977000;0.4234;-0.1419;0.3272;0.554
0.982000;0.4659;-0.1603;0.3284;0.592
0.986000;0.4749;-0.1959;0.2652;0.578
0.993000;0.4983;-0.1743;0.2452;0.582
0.997000;0.4714;-0.2053;0.2395;0.567
1.002000;0.4231;-0.1837;0.2506;0.525
1.007000;0.4105;-0.1883;0.2855;0.534
1.011000;0.3739;-0.1714;0.3226;0.523
1.016000;0.3326;-0.1449;0.2976;0.469
1.026000;0.2864;-0.1448;0.3394;0.467
1.027000;0.2356;-0.1541;0.3549;0.453
1.031000;0.2229;-0.1230;0.4157;0.487
1.036000;0.1838;-0.1537;0.4285;0.491
1.042000;0.1614;-0.1275;0.4532;0.498
1.045000;0.1650;-0.1016;0.4564;0.496
1.051000;0.1491;-0.1023;0.4573;0.492
1.055000;0.1351;-0.1176;0.4223;0.459
1.060000;0.1305;-0.1401;0.3970;0.441
1.065000;0.1256;-0.1341;0.3717;0.415
1.070000;0.1228;-0.1591;0.3656;0.417
1.075000;0.1148;-0.1532;0.3667;0.414
1.080000;0.1450;-0.1618;0.3535;0.415
1.085000;0.1392;-0.0921;0.2736;0.320
1.091000;0.1382;-0.1161;0.5016;0.533
1.095000;0.1277;-0.0906;0.2066;0.259
1.099000;0.1222;-0.0393;0.2203;0.255
1.104000;0.1216;-0.0247;0.1910;0.228
1.112000;0.1163;0.0156;0.1118;0.162
1.115000;0.0967;0.0697;0.0543;0.131
1.119000;0.0322;0.0802;-0.0435;0.097
1.126000;0.0014;0.1453;-0.1220;0.190
1.129000;-0.0365;0.1842;-0.1882;0.266
1.134000;-0.0838;0.2111;-0.2352;0.327
1.139000;-0.0955;0.2550;-0.3179;0.419
1.144000;-0.0861;0.2225;-0.3694;0.440
1.148000;-0.0650;0.2550;-0.4088;0.486
1.154000;-0.0803;0.2638;-0.4505;0.528
1.159000;-0.1151;0.2778;-0.5041;0.587
1.164000;-0.0210;0.2947;-0.5456;0.620
1.168000;0.0345;0.3049;-0.5298;0.612
1.174000;0.0244;0.3130;-0.5904;0.669
1.178000;0.0335;0.3431;-0.6676;0.751
1.183000;0.0670;0.3379;-0.6491;0.735
1.188000;0.0937;0.3643;-0.6713;0.770
1.193000;0.0804;0.3485;-0.6768;0.765
1.197000;0.1729;0.3024;-0.6107;0.703
1.202000;0.1777;0.2499;-0.4852;0.574
1.209000;0.1618;0.2220;-0.4196;0.502
1.213000;0.1422;0.2139;-0.3114;0.404
1.217000;0.0880;0.1562;-0.1032;0.207
1.234000;0.0276;0.0965;0.0996;0.141
1.235000;-0.0631;0.0251;0.2470;0.256
1.235000;-0.1386;-0.0178;0.4155;0.438
1.237000;-0.1798;-0.0800;0.5431;0.578
1.244000;-0.2082;-0.1260;0.6751;0.718
1.249000;-0.2193;-0.1867;0.7948;0.845
1.252000;-0.2066;-0.1910;0.8809;0.925
1.257000;-0.2537;-0.1961;0.9167;0.971
1.261000;-0.2938;-0.2048;0.9048;0.973
1.267000;-0.2885;-0.1784;0.8118;0.880
1.271000;-0.2136;-0.1743;0.8432;0.887
1.279000;-0.3086;-0.1731;0.8054;0.880
1.281000;-0.3585;-0.1149;0.7367;0.827
1.286000;-0.4158;-0.0665;0.7349;0.847
1.291000;-0.4494;-0.0377;0.7380;0.865
1.296000;-0.4905;0.0028;0.7028;0.857
1.300000;-0.5323;0.0620;0.6726;0.860
1.309000;-0.5556;0.0778;0.6280;0.842
1.310000;-0.5556;0.1387;0.5693;0.808
1.315000;-0.5443;0.1804;0.5012;0.762
1.320000;-0.5074;0.2191;0.4500;0.713
1.331000;-0.4664;0.2287;0.3297;0.615
1.331000;-0.4282;0.2263;0.2431;0.542
1.335000;-0.3926;0.2497;0.1329;0.484
1.340000;-0.3524;0.2705;0.0660;0.449
1.345000;-0.3075;0.2721;-0.0150;0.411
1.350000;-0.2889;0.2783;-0.0791;0.409
1.354000;-0.2794;0.2822;-0.1144;0.413
1.361000;-0.2720;0.2957;-0.1592;0.432
1.364000;-0.2645;0.3139;-0.1918;0.453
1.369000;-0.2688;0.3060;-0.1886;0.449
1.374000;-0.2706;0.3198;-0.2093;0.468
1.379000;-0.2441;0.3360;-0.2538;0.487
1.384000;-0.2539;0.3216;-0.2601;0.485
1.389000;-0.2235;0.3148;-0.2854;0.480
1.393000;-0.2245;0.3275;-0.2559;0.472
1.399000;-0.1663;0.2905;-0.2694;0.430
1.403000;-0.1300;0.2899;-0.2400;0.398
1.410000;-0.1059;0.2467;-0.1940;0.331
1.414000;-0.1272;0.2015;-0.1100;0.262
1.418000;-0.1434;0.1684;-0.0094;0.221
1.431000;-0.1715;0.1187;0.0789;0.223
1.432000;-0.1970;0.0927;0.2172;0.308
1.433000;-0.2461;0.0447;0.3456;0.427
1.438000;-0.2521;0.0079;0.4404;0.508
1.442000;-0.2579;-0.0679;0.4706;0.541
1.448000;-0.2469;-0.1040;0.5199;0.585
1.453000;-0.1809;-0.1695;0.5476;0.601
1.457000;-0.1775;-0.1975;0.5276;0.591
1.462000;-0.1745;-0.2306;0.4647;0.547
1.467000;-0.1119;-0.2474;0.4545;0.529
1.473000;-0.0855;-0.2433;0.3895;0.467
1.476000;-0.0689;-0.2039;0.3367;0.400
1.482000;-0.0309;-0.1412;0.2601;0.298
1.487000;-0.0146;-0.1051;0.1933;0.221
1.492000;0.0154;-0.0884;0.0861;0.124
1.497000;0.0566;-0.0525;-0.0232;0.081
1.501000;0.0543;0.0003;-0.1467;0.156
1.510000;0.0490;0.0319;-0.2484;0.255
1.511000;0.0242;0.0524;-0.3738;0.378
1.515000;-0.0008;0.1380;-0.4297;0.451
1.521000;-0.0379;0.1956;-0.4594;0.501
1.531000;-0.0583;0.2037;-0.5129;0.555
1.532000;-0.0907;0.2175;-0.5305;0.580
1.536000;-0.0966;0.2272;-0.5482;0.601
1.546000;-0.0950;0.1611;-0.5133;0.546
1.547000;-0.1123;0.1266;-0.4785;0.508
1.550000;-0.0768;0.0614;-0.4367;0.448
1.556000;-0.0913;0.0326;-0.3736;0.386
1.560000;-0.0102;-0.0341;-0.3607;0.362
1.565000;0.0731;-0.0769;-0.3598;0.375
1.570000;0.1489;-0.1218;-0.3446;0.395
1.578000;0.2006;-0.1571;-0.4010;0.475
1.580000;0.2091;-0.1780;-0.4573;0.533
1.585000;0.2414;-0.1889;-0.5231;0.606
1.589000;0.2188;-0.2042;-0.5553;0.631
1.595000;0.1991;-0.1715;-0.5635;0.622
1.599000;0.1369;-0.1432;-0.5503;0.585
1.605000;0.0537;-0.0860;-0.5396;0.549
1.611000;0.0137;-0.0286;-0.4644;0.466
1.615000;-0.0388;-0.0280;-0.5065;0.509
1.618000;-0.0899;-0.0289;-0.5891;0.597
1.639000;-0.1680;-0.0645;-0.6264;0.652
1.640000;-0.2011;-0.0628;-0.6111;0.646
1.640000;-0.1790;-0.1007;-0.5053;0.545
1.640000;-0.1669;-0.1163;-0.3688;0.421
1.645000;-0.0999;-0.1123;-0.3089;0.344
1.651000;-0.1023;-0.1463;-0.2731;0.326
1.654000;-0.0927;-0.2040;-0.3401;0.407
1.659000;-0.0398;-0.1827;-0.3257;0.376
1.663000;-0.0437;-0.1901;-0.2994;0.357
1.668000;-0.0520;-0.1712;-0.3281;0.374
1.673000;-0.0671;-0.1712;-0.3304;0.378
1.678000;-0.0678;-0.1828;-0.4020;0.447
1.682000;-0.0326;-0.1701;-0.3922;0.429
1.688000;-0.0355;-0.1567;-0.3802;0.413
1.693000;-0.0431;-0.1906;-0.3611;0.411
1.698000;-0.0294;-0.2236;-0.3014;0.376
1.702000;-0.0422;-0.2489;-0.2611;0.363
1.711000;-0.0573;-0.2521;-0.1898;0.321
1.712000;-0.0985;-0.2219;-0.1234;0.272
1.718000;-0.0724;-0.2370;-0.1121;0.272
1.722000;-0.1012;-0.1878;-0.1079;0.239
1.738000;-0.1225;-0.2059;-0.1085;0.263
1.738000;-0.1287;-0.2336;-0.1664;0.314
1.739000;-0.1557;-0.2781;-0.1692;0.361
1.748000;-0.2153;-0.3349;-0.1194;0.416
1.748000;-0.2482;-0.3200;-0.0864;0.414
1.751000;-0.2498;-0.3222;0.0731;0.414
1.757000;-0.2613;-0.2557;-0.1593;0.399
1.761000;-0.2810;-0.2448;0.0124;0.373
1.766000;-0.2347;-0.2248;0.0620;0.331
1.771000;-0.1682;-0.1841;-0.0604;0.257
1.776000;-0.0907;-0.1417;-0.0990;0.195
1.781000;0.0050;-0.1051;-0.2567;0.277
1.786000;0.1286;-0.0667;-0.4332;0.457
1.792000;0.2401;-0.0025;-0.6093;0.655
1.795000;0.2993;0.0209;-0.7659;0.823
1.800000;0.3544;0.0305;-0.8864;0.955
1.806000;0.3626;0.0553;-0.9111;0.982
1.811000;0.3694;0.0784;-0.9001;0.976
1.817000;0.3555;0.0882;-0.7840;0.865
1.820000;0.3306;0.1034;-0.7065;0.787
1.837000;0.2393;0.1026;-0.5909;0.646
1.838000;0.1676;0.1073;-0.4733;0.513
1.838000;0.0773;0.1196;-0.3463;0.374
1.839000;0.0516;0.1417;-0.3080;0.343
1.848000;0.0283;0.1427;-0.2506;0.290
1.849000;0.0100;0.1079;-0.1743;0.205
1.854000;-0.0370;0.1165;-0.0743;0.143
1.860000;-0.0220;0.1415;-0.0436;0.150
1.864000;0.0500;0.1595;0.0012;0.167
1.869000;0.1144;0.1678;-0.0065;0.203
1.873000;0.1189;0.1309;-0.0190;0.178
1.878000;0.0709;0.1156;0.0116;0.136
1.883000;0.0664;0.1413;0.0612;0.168
1.888000;0.0506;0.0858;0.1154;0.152
1.895000;0.0401;0.1167;0.1887;0.225
1.898000;0.0306;0.1186;0.2976;0.322
1.903000;0.0056;0.1441;0.4255;0.449
1.928000;-0.0038;0.1472;0.5053;0.526
1.929000;-0.0146;0.1687;0.5517;0.577
1.929000;-0.0510;0.1511;0.5669;0.589
1.930000;-0.0580;0.1828;0.6132;0.643
1.930000;-0.0817;0.1637;0.6213;0.648
1.932000;-0.0697;0.2183;0.6293;0.670
1.939000;-0.0488;0.2413;0.6039;0.652
1.950000;-0.0406;0.2618;0.5284;0.591
1.950000;-0.0502;0.2608;0.5033;0.569
1.952000;-0.1061;0.2913;0.4328;0.532
1.957000;-0.1418;0.2844;0.3719;0.489
1.966000;-0.1856;0.3021;0.4067;0.540
1.967000;-0.1995;0.3230;0.4175;0.564
1.971000;-0.2171;0.3234;0.4665;0.608
1.984000;-0.2356;0.2693;0.5202;0.631
1.985000;-0.2284;0.2659;0.6143;0.707
1.986000;-0.1663;0.2503;0.6988;0.761
2.001000;-0.0973;0.2484;0.7378;0.785
2.002000;-0.0310;0.1883;0.6931;0.719
2.002000;-0.0053;0.1369;0.6628;0.677
2.006000;0.0542;0.0989;0.5730;0.584
2.020000;0.0999;0.0864;0.5694;0.584
2.021000;0.1557;0.1041;0.5418;0.573
2.022000;0.1805;0.1590;0.4022;0.469
2.026000;0.2098;0.1701;0.2533;0.370
2.030000;0.1698;0.1690;0.0927;0.257
2.035000;0.0632;0.1992;0.0280;0.211
2.040000;0.0020;0.1729;-0.0032;0.173
2.065000;-0.0502;0.2166;0.0659;0.232
2.065000;-0.1053;0.2658;0.1421;0.319
2.066000;-0.1013;0.3010;0.1943;0.372
2.066000;-0.1317;0.3055;0.1580;0.368
2.066000;-0.1436;0.2744;0.1481;0.343
2.069000;-0.1535;0.2077;0.0952;0.275
2.075000;-0.1443;0.1411;0.0711;0.214
2.079000;-0.1013;0.0536;0.0757;0.137
2.086000;-0.0719;0.0067;0.1710;0.186
2.090000;-0.0585;-0.0522;0.2733;0.284
2.099000;-0.0299;-0.1238;0.3898;0.410
2.100000;-0.0169;-0.1391;0.4153;0.438
2.104000;0.0021;-0.1463;0.4384;0.462
2.119000;0.0056;-0.1527;0.4519;0.477
2.119000;0.0053;-0.1681;0.4319;0.464
2.120000;0.0727;-0.1395;0.3451;0.379
2.123000;0.1261;-0.1242;0.2394;0.298
2.131000;0.1434;-0.1003;0.0909;0.197
2.134000;0.1606;-0.0649;-0.0143;0.174
2.158000;0.1608;-0.0604;-0.1576;0.233
2.159000;0.1461;-0.0437;-0.2408;0.285
2.159000;0.1621;0.0334;-0.2690;0.316
2.159000;0.1489;0.0587;-0.3306;0.367
2.160000;0.1135;0.0967;-0.3109;0.345
2.162000;0.0588;0.0901;-0.3079;0.326
2.168000;0.0231;0.1082;-0.2643;0.287
2.173000;-0.0102;0.1436;-0.2615;0.298
2.178000;-0.0359;0.1459;-0.2084;0.257
2.182000;-0.0849;0.1316;-0.1627;0.226
2.187000;-0.0998;0.1126;-0.1385;0.205
2.194000;-0.0950;0.0791;-0.0929;0.155
2.197000;-0.0753;0.0335;-0.0641;0.104
2.202000;-0.0407;0.0043;-0.0903;0.099
2.207000;-0.0345;-0.0034;-0.1045;0.110
2.212000;0.0030;-0.0469;-0.1306;0.139
2.216000;0.0190;-0.0786;-0.1424;0.164
2.222000;0.0516;-0.1095;-0.1350;0.181
2.244000;0.0389;-0.1233;-0.1133;0.172
2.245000;0.0736;-0.1489;-0.0893;0.189
2.245000;0.1081;-0.1502;-0.0915;0.206
2.245000;0.1374;-0.1081;-0.0819;0.193
2.246000;0.1569;-0.1522;-0.0627;0.227
2.251000;0.1811;-0.2367;-0.0745;0.307
2.256000;0.2511;-0.3184;-0.0792;0.413
2.261000;0.2475;-0.3477;-0.0887;0.436
2.266000;0.2589;-0.2886;-0.0599;0.392
2.271000;0.2086;-0.2610;-0.0431;0.337
2.277000;0.1729;-0.2431;-0.0598;0.304
2.280000;0.1257;-0.2299;-0.0622;0.269
2.286000;0.0807;-0.2260;-0.0597;0.247
2.291000;0.0214;-0.2149;-0.0190;0.217
2.295000;-0.0545;-0.2132;0.0072;0.220
2.300000;-0.0946;-0.1900;0.0812;0.227
2.305000;-0.1231;-0.1122;0.0548;0.175
2.312000;-0.1044;-0.0731;0.0570;0.140
2.314000;-0.1199;-0.0820;0.0187;0.146
2.319000;-0.0950;-0.0889;-0.0052;0.130
2.325000;-0.0655;-0.0671;-0.0435;0.103
2.346000;0.0117;-0.0479;-0.0840;0.097
2.347000;0.0430;-0.0528;-0.1316;0.148
2.348000;0.1384;-0.0458;-0.2270;0.270
2.348000;0.1926;-0.0479;-0.2552;0.323
2.350000;0.2340;-0.0422;-0.3050;0.387
2.354000;0.2722;-0.0287;-0.3880;0.475
2.360000;0.2768;-0.0473;-0.4014;0.490
2.364000;0.2595;-0.0436;-0.3814;0.463
2.369000;0.2304;-0.0201;-0.2785;0.362
2.373000;0.2157;-0.0034;-0.1765;0.279
2.378000;0.1583;0.0183;-0.0776;0.177
2.383000;0.1319;0.0089;-0.0200;0.134
2.388000;0.1007;0.0210;0.0230;0.105
2.393000;0.0416;0.0304;0.0585;0.078
2.398000;-0.0022;0.0346;0.0794;0.087
2.403000;-0.0141;0.0193;0.0883;0.092
2.408000;-0.0342;-0.0058;0.1565;0.160
2.413000;-0.0265;-0.0599;0.2406;0.249
2.418000;-0.0436;-0.1004;0.2149;0.241
2.422000;0.0099;-0.0731;0.3412;0.349
2.447000;0.0544;-0.1225;0.4285;0.449
2.448000;0.0945;-0.1535;0.2398;0.300
2.448000;0.1180;-0.1515;0.2971;0.354
2.512000;0.1102;-0.1548;0.2874;0.345
2.513000;0.1211;-0.1416;0.2494;0.311
2.514000;0.1381;-0.1451;0.2045;0.286
2.514000;0.0994;-0.1107;0.1316;0.199
2.515000;0.0717;-0.0478;0.0878;0.123
2.518000;0.0526;-0.0017;0.0349;0.063
2.518000;-0.0031;0.0276;-0.0058;0.028
2.519000;-0.0235;0.0688;-0.0484;0.087
2.520000;-0.0369;0.0886;-0.0669;0.117
2.520000;-0.0694;0.1488;-0.0663;0.177
2.521000;-0.0855;0.1907;-0.0877;0.227
2.522000;-0.1229;0.1917;-0.0732;0.239
2.522000;-0.1096;0.2117;-0.1208;0.267
2.523000;-0.1077;0.2075;-0.1349;0.270
2.524000;-0.0934;0.2222;-0.1681;0.294
2.524000;-0.0644;0.2463;-0.1965;0.322
2.525000;-0.0663;0.2203;-0.2105;0.312
2.526000;-0.0656;0.2495;-0.2102;0.333
2.530000;-0.0292;0.2456;-0.2194;0.331
2.535000;-0.0338;0.2635;-0.2119;0.340
2.540000;0.0139;0.2459;-0.2067;0.322
2.546000;0.0447;0.2409;-0.1896;0.310
2.549000;0.0797;0.2197;-0.1773;0.293
2.554000;0.0665;0.1988;-0.1651;0.267
2.573000;0.0797;0.1950;-0.1265;0.246
2.574000;0.1433;0.1892;-0.0617;0.245
2.574000;0.1542;0.1739;-0.0449;0.237
2.576000;0.1511;0.1205;-0.0089;0.193
2.583000;0.1268;0.1723;0.0246;0.215
2.588000;0.0792;0.1788;0.0509;0.202
2.588000;0.0418;0.1445;0.0963;0.179
2.594000;0.0049;0.1817;0.1368;0.227
2.598000;-0.0506;0.1852;0.1916;0.271
2.603000;-0.0907;0.1685;0.2232;0.294
2.608000;-0.1064;0.1493;0.2688;0.325
2.614000;-0.1288;0.1347;0.3307;0.380
2.619000;-0.1626;0.1152;0.4134;0.459
2.623000;-0.1565;0.0772;0.4749;0.506
2.639000;-0.1454;0.0700;0.5506;0.574
2.639000;-0.0937;0.0410;0.5617;0.571
2.639000;-0.1162;0.0235;0.5727;0.585
2.642000;-0.1198;0.0198;0.5647;0.578
2.649000;-0.1094;-0.0130;0.5542;0.565
2.652000;-0.1350;-0.0078;0.5438;0.560
2.657000;-0.1324;0.0210;0.5310;0.548
2.662000;-0.1301;0.0494;0.5086;0.527
2.667000;-0.1233;0.0847;0.4839;0.507
2.672000;-0.1099;0.1244;0.4043;0.437
2.677000;-0.1231;0.0992;0.3129;0.351
2.682000;-0.1455;0.0906;0.2526;0.305
2.686000;-0.1343;0.1344;0.2594;0.322
2.691000;-0.1302;0.1422;0.2661;0.329
2.697000;-0.1144;0.1402;0.2704;0.325
2.701000;-0.1156;0.1426;0.2341;0.298
2.706000;-0.1244;0.2021;0.1549;0.283
2.712000;-0.1097;0.1752;0.0399;0.211
2.715000;-0.1001;0.2245;-0.0581;0.253
2.720000;-0.0789;0.2261;-0.1919;0.307
2.726000;-0.0794;0.2398;-0.2705;0.370
2.731000;-0.0322;0.2612;-0.3441;0.433
2.735000;-0.0355;0.2663;-0.3819;0.467
2.740000;-0.0675;0.2863;-0.3813;0.482
2.745000;-0.0683;0.2304;-0.3640;0.436
2.750000;-0.0716;0.2177;-0.3611;0.428
2.755000;-0.0485;0.2077;-0.3486;0.409
2.761000;0.0272;0.1619;-0.3433;0.381
2.765000;0.0717;0.1547;-0.3523;0.391
2.770000;0.1401;0.1091;-0.3972;0.435
2.775000;0.1750;0.1018;-0.4539;0.497
2.781000;0.1910;0.0755;-0.4986;0.539
2.785000;0.1760;0.0639;-0.5624;0.593
2.789000;0.2254;0.1033;-0.5113;0.568
2.798000;0.2556;0.1217;-0.4699;0.549
2.800000;0.2425;0.1238;-0.4620;0.536
2.805000;0.1763;0.1287;-0.4685;0.517
2.809000;0.0288;0.1606;-0.4486;0.477
2.836000;-0.0085;0.1119;-0.4646;0.478
2.839000;0.0400;0.1193;-0.2822;0.309
2.840000;0.0744;0.0983;-0.0906;0.153
2.840000;0.0728;0.0509;0.0220;0.092
2.840000;0.0019;0.0363;0.0411;0.055
2.841000;0.0051;-0.0119;0.0460;0.048
2.847000;-0.0152;-0.0460;0.0627;0.079
2.852000;0.0844;-0.0661;0.1320;0.170
2.853000;0.1246;-0.0938;0.1916;0.247
2.858000;0.1339;-0.1458;0.1866;0.272
2.864000;0.0693;-0.1744;0.1720;0.255
2.868000;0.0674;-0.1793;0.2244;0.295
2.873000;0.1086;-0.1320;0.2742;0.323
2.879000;0.0973;-0.1425;0.3073;0.352
2.883000;0.1334;-0.1269;0.2878;0.342
2.888000;0.0997;-0.1594;0.2850;0.341
2.893000;0.0869;-0.1846;0.2273;0.305
2.897000;0.0646;-0.1978;0.1768;0.273
2.903000;0.0186;-0.1917;0.2100;0.285
2.908000;-0.0344;-0.1973;0.3005;0.361
2.914000;-0.1067;-0.1694;0.3670;0.418
2.917000;-0.1481;-0.1775;0.4525;0.508
2.922000;-0.2064;-0.1880;0.4782;0.554
2.927000;-0.2479;-0.1965;0.5755;0.657
2.945000;-0.3014;-0.1650;0.6058;0.696
2.948000;-0.3167;-0.1366;0.5930;0.686
2.948000;-0.3893;-0.0901;0.5873;0.710
2.949000;-0.4091;-0.0827;0.5243;0.670
2.951000;-0.3807;-0.0354;0.4734;0.608
2.956000;-0.3521;-0.0341;0.3747;0.515
2.960000;-0.3211;-0.0239;0.2761;0.424
2.965000;-0.2616;-0.0354;0.1800;0.320
2.971000;-0.1901;-0.0039;0.0913;0.211
2.976000;-0.1545;-0.0440;0.0720;0.176
2.980000;-0.1214;-0.0290;0.0192;0.126
2.986000;-0.0765;-0.0067;-0.0048;0.077
2.991000;-0.0605;-0.0129;-0.0478;0.078
2.996000;-0.0877;0.0265;-0.0693;0.115
3.001000;-0.1077;0.0324;-0.0932;0.146
3.006000;-0.1253;0.0787;-0.1098;0.184
3.010000;-0.1095;0.1177;-0.1408;0.214
3.019000;-0.0985;0.1401;-0.1621;0.236
3.020000;-0.0801;0.1668;-0.2408;0.304
3.026000;-0.0470;0.2005;-0.3313;0.390
3.057000;-0.0780;0.2340;-0.3835;0.456
3.061000;-0.1013;0.2365;-0.4595;0.527
3.063000;-0.1026;0.2514;-0.5115;0.579
3.064000;-0.0795;0.2547;-0.5109;0.576
3.064000;-0.0561;0.2466;-0.4648;0.529
3.064000;-0.0255;0.2605;-0.4380;0.510
3.065000;-0.0191;0.2437;-0.4565;0.518
3.065000;-0.0390;0.2155;-0.4320;0.484
3.069000;-0.0135;0.1810;-0.4028;0.442
3.074000;0.0190;0.1613;-0.3544;0.390
3.079000;0.0177;0.1134;-0.2990;0.320
3.083000;0.0044;0.1163;-0.1839;0.218
3.088000;-0.0401;0.0502;0.1389;0.153
3.093000;-0.0511;0.0345;-0.0500;0.079
3.098000;-0.0718;0.0286;0.0839;0.114
3.103000;-0.0734;-0.0112;0.2486;0.259
3.108000;-0.0915;-0.0465;0.2579;0.278
3.118000;-0.0665;-0.0634;0.2766;0.291
3.119000;-0.0870;-0.1001;0.3001;0.328
3.123000;-0.0619;-0.1063;0.3021;0.326
3.128000;-0.0250;-0.1346;0.2706;0.303
3.154000;0.0168;-0.1321;0.2128;0.251
3.155000;0.0677;-0.1324;0.1456;0.208
3.155000;0.0465;-0.1113;0.0474;0.130
3.155000;0.0705;-0.0758;0.0162;0.105
3.156000;0.0297;-0.0497;-0.0484;0.075
3.157000;-0.0064;-0.0280;-0.0722;0.078
3.164000;-0.0378;-0.0158;-0.0530;0.067
3.166000;-0.0814;0.0230;-0.0458;0.096
3.172000;-0.0725;0.0550;-0.0505;0.104
3.176000;-0.0734;0.0896;-0.0576;0.129
3.183000;-0.0625;0.0764;-0.0480;0.110
3.187000;-0.0301;0.0703;-0.1005;0.126
3.192000;0.0166;0.0642;-0.1099;0.128
3.199000;0.0586;0.0510;-0.1337;0.155
3.201000;0.0962;0.0664;-0.1335;0.177
3.206000;0.1389;0.0555;-0.1620;0.220
3.236000;0.1316;0.0877;-0.2024;0.257
3.237000;0.1319;0.0742;-0.2261;0.272
3.238000;0.0919;0.0990;-0.2425;0.278
3.238000;0.0786;0.1358;-0.2518;0.297
3.238000;0.0371;0.1775;-0.2873;0.340
3.239000;0.0104;0.1788;-0.2726;0.326
3.242000;-0.0181;0.1826;-0.2221;0.288
3.246000;-0.0703;0.2010;-0.1406;0.255
3.250000;-0.0480;0.2099;-0.1118;0.243
3.255000;-0.0303;0.2260;-0.0591;0.236
3.260000;-0.0128;0.2063;-0.0160;0.207
3.265000;-0.0361;0.1987;-0.0232;0.203
3.269000;-0.0620;0.2125;-0.0256;0.223
3.274000;-0.0830;0.2050;-0.0136;0.222
3.280000;-0.0778;0.2097;-0.0064;0.224
3.285000;-0.0871;0.2480;0.0031;0.263
3.290000;-0.1059;0.2410;0.0318;0.265
3.295000;-0.1057;0.2273;0.0772;0.262
3.302000;-0.1077;0.1947;0.1225;0.254
3.304000;-0.1043;0.1705;0.1997;0.283
3.309000;-0.0775;0.1683;0.2194;0.287
3.316000;-0.0415;0.1539;0.2484;0.295
3.319000;-0.0062;0.1347;0.2559;0.289
3.323000;0.0236;0.1535;0.1897;0.245
3.328000;0.0855;0.1080;0.1240;0.185
3.352000;0.0679;0.1297;0.0732;0.164
3.353000;0.0506;0.1393;0.0797;0.168
3.353000;0.0904;0.1419;0.0601;0.179
3.353000;0.0613;0.1420;0.0501;0.163
3.354000;0.0615;0.1868;0.0425;0.201
3.358000;0.0290;0.2024;0.0303;0.207
3.363000;-0.0025;0.2457;0.0182;0.246
3.368000;-0.0189;0.2646;0.0085;0.265
3.373000;-0.0301;0.2687;-0.0366;0.273
3.377000;-0.0125;0.3177;-0.0553;0.323
3.382000;0.0191;0.3233;-0.0857;0.335
3.387000;0.0740;0.3409;-0.1467;0.378
3.392000;0.1161;0.3205;-0.2309;0.412
3.398000;0.1741;0.3103;-0.2907;0.459
3.402000;0.2311;0.2864;-0.3310;0.495
3.407000;0.2828;0.2563;-0.3187;0.497
3.411000;0.3245;0.2342;-0.3089;0.506
3.427000;0.3324;0.2196;-0.2945;0.495
3.429000;0.3145;0.1794;-0.2541;0.442
3.429000;0.2590;0.1303;-0.1950;0.349
3.437000;0.2609;0.0769;-0.1435;0.308
3.437000;0.2179;0.0643;-0.0712;0.238
3.442000;0.1944;0.0258;-0.0231;0.197
3.447000;0.1712;0.0229;0.0317;0.176
3.451000;0.1081;-0.0253;0.0480;0.121
3.456000;0.0696;-0.0616;0.1402;0.168
3.460000;0.0367;-0.0505;0.1888;0.199
3.466000;0.0186;-0.0757;0.2395;0.252
3.470000;-0.0014;-0.0893;0.2992;0.312
3.475000;-0.0162;-0.1059;0.3322;0.349
3.480000;-0.0335;-0.1357;0.3629;0.389
3.485000;-0.0246;-0.1515;0.3577;0.389
3.490000;0.0080;-0.1510;0.3261;0.359
3.495000;-0.0100;-0.1819;0.2946;0.346
3.500000;0.0073;-0.1723;0.2680;0.319
3.505000;0.0216;-0.1913;0.2557;0.320
3.509000;0.0258;-0.1743;0.2315;0.291
3.517000;0.0343;-0.1692;0.2025;0.266
3.519000;0.0615;-0.1809;0.1401;0.237
3.524000;0.0907;-0.1591;0.0921;0.205
3.528000;0.0912;-0.1827;0.0633;0.214
3.557000;0.1059;-0.1487;0.0226;0.184
3.558000;0.0871;-0.1220;0.0202;0.151
3.559000;0.0851;-0.1312;0.0034;0.156
3.559000;0.0640;-0.1020;-0.0300;0.124
3.559000;0.0643;-0.0776;-0.0300;0.105
3.559000;0.0454;-0.0482;-0.0658;0.093
3.567000;0.0310;-0.0329;-0.0968;0.107
3.568000;0.0303;-0.0198;-0.1899;0.193
3.573000;0.0555;-0.0158;-0.2327;0.240
3.578000;0.0588;-0.0115;-0.2443;0.252
3.583000;0.0879;-0.0069;-0.2679;0.282
3.588000;0.0831;0.0053;-0.3106;0.322
3.593000;0.1116;0.0035;-0.2983;0.319
3.600000;0.1235;-0.0076;-0.3051;0.329
3.602000;0.1308;-0.0398;-0.2928;0.323
3.607000;0.1600;-0.0576;-0.2757;0.324
3.612000;0.2064;-0.1064;-0.2418;0.335
3.638000;0.2340;-0.1338;-0.2320;0.356
3.639000;0.2210;-0.1897;-0.2580;0.389
3.639000;0.2247;-0.1884;-0.2290;0.372
3.639000;0.2285;-0.2130;-0.2263;0.386
3.639000;0.2438;-0.2112;-0.2188;0.390
3.642000;0.2394;-0.2022;-0.2138;0.379
3.646000;0.2271;-0.1811;-0.2374;0.375
3.652000;0.2285;-0.1430;-0.2682;0.380
3.656000;0.2339;-0.1286;-0.3108;0.410
3.661000;0.2270;-0.0594;-0.3606;0.430
3.666000;0.2127;-0.0500;-0.3769;0.436
3.671000;0.1842;-0.0213;-0.4075;0.448
3.675000;0.1704;-0.0070;-0.4523;0.483
3.681000;0.1572;0.0073;-0.4733;0.499
3.686000;0.1756;0.0217;-0.4965;0.527
3.691000;0.1682;0.0337;-0.4887;0.518
3.695000;0.1805;0.0292;-0.4570;0.492
3.701000;0.1286;-0.0085;-0.4182;0.438
3.706000;0.1340;0.0140;-0.3842;0.407
3.712000;0.1794;-0.0276;-0.3932;0.433
3.718000;0.1759;-0.0565;-0.3640;0.408
3.722000;0.1905;-0.0634;-0.3515;0.405
3.725000;0.1873;-0.0575;-0.2961;0.355
3.730000;0.2255;-0.0581;-0.2860;0.369
3.764000;0.2409;-0.0535;-0.2664;0.363
3.765000;0.3034;-0.0653;-0.2396;0.392
3.765000;0.2801;-0.0174;-0.1853;0.336
3.766000;0.2839;0.0318;-0.1456;0.321
3.766000;0.2674;0.0676;-0.2036;0.343
3.766000;0.2149;0.1397;-0.1282;0.287
3.767000;0.1506;0.1835;0.0058;0.237
3.769000;0.0940;0.2583;-0.1579;0.317
3.774000;0.0828;0.3358;-0.1305;0.370
3.779000;0.0713;0.3900;-0.1699;0.431
3.783000;0.0355;0.4903;-0.1994;0.530
3.789000;0.0057;0.5277;-0.2287;0.575
3.793000;-0.0396;0.5575;-0.2696;0.621
3.800000;-0.0793;0.5635;-0.2628;0.627
3.803000;-0.1504;0.5742;-0.2697;0.652
3.808000;-0.1783;0.5880;-0.2408;0.660
3.813000;-0.2541;0.6005;-0.1760;0.675
3.826000;-0.2607;0.6118;-0.0492;0.667
3.827000;-0.2958;0.5688;0.1062;0.650
3.828000;-0.3717;0.4930;0.1610;0.638
3.836000;-0.4145;0.4702;0.2157;0.663
3.837000;-0.4099;0.4453;0.2991;0.675
3.843000;-0.4226;0.4402;0.3107;0.685
3.848000;-0.3976;0.3998;0.3581;0.668
3.852000;-0.3373;0.3739;0.3935;0.639
3.857000;-0.3090;0.3412;0.4360;0.634
3.862000;-0.2214;0.2919;0.4212;0.558
3.867000;-0.1631;0.2499;0.3872;0.489
3.872000;-0.0599;0.1792;0.3438;0.392
3.877000;-0.0123;0.1541;0.3028;0.340
3.882000;-0.0132;0.1342;0.2283;0.265
3.888000;0.0543;0.0932;0.1349;0.173
3.892000;0.0734;0.0886;0.1133;0.161
3.896000;0.0401;0.0701;0.1443;0.165
3.902000;0.0550;0.0684;0.1513;0.175
3.907000;0.0444;0.0689;0.1942;0.211
3.911000;0.0106;0.0592;0.2514;0.259
3.918000;-0.0170;0.0632;0.2129;0.223
3.921000;-0.0362;0.0686;0.2151;0.229
3.925000;-0.0422;0.0661;0.2268;0.240
3.930000;-0.0755;0.0673;0.0760;0.127
3.962000;-0.1245;0.0413;0.1787;0.222
3.963000;-0.0578;0.0671;0.1403;0.166
3.963000;-0.0527;0.1160;0.0493;0.137
3.964000;-0.1266;0.1001;0.0589;0.172
3.964000;-0.1121;0.1291;0.0015;0.171
3.964000;-0.1265;0.2342;-0.0487;0.271
3.972000;-0.1557;0.2771;-0.1537;0.353
3.973000;-0.1856;0.3368;-0.2228;0.444
3.975000;-0.2232;0.4115;-0.3228;0.569
3.980000;-0.2521;0.4729;-0.3463;0.638
3.985000;-0.2605;0.5090;-0.3457;0.668
3.989000;-0.2748;0.5586;-0.3165;0.698
3.994000;-0.3596;0.5546;-0.2898;0.722
4.000000;-0.3957;0.5856;-0.2989;0.767
4.005000;-0.4380;0.5750;-0.3510;0.804
4.012000;-0.5246;0.5640;-0.3313;0.838
4.014000;-0.6358;0.5500;-0.2184;0.869
4.030000;-0.7114;0.5805;-0.0841;0.922
4.030000;-0.8063;0.6262;0.0596;1.023
4.031000;-0.8843;0.5985;0.2151;1.089
4.040000;-0.9142;0.5684;0.3418;1.129
4.040000;-0.9174;0.5524;0.4420;1.158
4.043000;-0.8938;0.5333;0.4991;1.154
4.051000;-0.8431;0.4848;0.5275;1.106
4.053000;-0.6841;0.4878;0.5199;0.988
4.058000;-0.5578;0.4992;0.5004;0.900
4.063000;-0.4143;0.5047;0.4069;0.769
4.068000;-0.2630;0.5021;0.2608;0.624
4.073000;-0.1353;0.5088;0.0982;0.536
4.077000;-0.0484;0.5036;-0.0020;0.506
4.083000;-0.0217;0.5441;-0.0973;0.553
4.088000;0.0071;0.5832;-0.1471;0.601
4.092000;-0.0246;0.6472;-0.1609;0.667
4.097000;-0.0569;0.6594;-0.1459;0.678
4.103000;-0.1068;0.7034;-0.1023;0.719
4.108000;-0.1621;0.7287;-0.0253;0.747
4.112000;-0.2275;0.7735;0.0110;0.806
4.119000;-0.2720;0.8251;0.0520;0.870
4.122000;-0.2903;0.8306;0.0787;0.883
4.126000;-0.3541;0.8162;0.0862;0.894
4.161000;-0.3815;0.8533;0.1127;0.941
4.162000;-0.4081;0.8937;0.1272;0.991
4.162000;-0.3523;0.9109;0.1417;0.987
4.163000;-0.3365;0.9477;0.0915;1.010
4.163000;-0.3008;0.9897;0.0629;1.036
4.163000;-0.2833;1.0635;-0.0327;1.101
4.164000;-0.2579;1.1235;-0.1378;1.161
4.172000;-0.2652;1.2127;-0.2357;1.264
4.172000;-0.3196;1.2885;-0.3669;1.377
4.176000;-0.3635;1.4060;-0.4693;1.526
4.180000;-0.3493;1.5103;-0.5979;1.662
4.185000;-0.3510;1.5996;-0.7144;1.787
4.190000;-0.3595;1.6409;-0.8164;1.868
4.195000;-0.3488;1.6656;-0.8657;1.909
4.202000;-0.3055;1.6699;-0.8623;1.904
4.205000;-0.3206;1.6513;-0.9305;1.922
4.209000;-0.3677;1.6271;-0.9820;1.936
4.215000;-0.3940;1.6310;-0.9257;1.916
4.231000;-0.3552;1.6179;-0.8504;1.862
4.232000;-0.3475;1.5782;-0.7775;1.793
4.232000;-0.4068;1.4978;-0.6856;1.697
4.235000;-0.4444;1.3933;-0.5507;1.563
4.239000;-0.4767;1.2644;-0.3945;1.408
4.244000;-0.5054;1.1922;-0.2074;1.311
4.250000;-0.5277;1.1162;0.0154;1.235
4.254000;-0.5499;1.0354;0.2260;1.194
4.259000;-0.5738;0.9276;0.4363;1.175
4.263000;-0.5726;0.8734;0.6104;1.210
4.269000;-0.5295;0.7768;0.7103;1.178
4.274000;-0.5205;0.7546;0.7669;1.195
4.279000;-0.4768;0.7275;0.8114;1.190
4.283000;-0.4274;0.7244;0.7721;1.142
4.288000;-0.3870;0.7623;0.6396;1.068
4.294000;-0.3466;0.7938;0.5383;1.020
4.298000;-0.3234;0.8744;0.3677;1.002
4.303000;-0.2916;0.9595;0.2332;1.030
4.308000;-0.2776;1.0469;0.0989;1.088
4.313000;-0.2602;1.1204;0.0077;1.150
4.322000;-0.2775;1.2159;-0.0881;1.250
4.324000;-0.2646;1.2882;-0.1504;1.324
4.328000;-0.2789;1.3300;-0.1982;1.373
4.365000;-0.2861;1.3629;-0.2411;1.413
4.366000;-0.2789;1.3916;-0.2385;1.439
4.366000;-0.3072;1.3491;-0.2335;1.403
4.366000;-0.3159;1.3260;-0.1449;1.371
4.366000;-0.3333;1.3008;-0.0444;1.344
4.367000;-0.3428;1.2781;0.0703;1.325
4.367000;-0.3062;1.2383;0.1371;1.283
4.368000;-0.3145;1.2075;0.1751;1.260
4.371000;-0.2864;1.1549;0.2394;1.214
4.376000;-0.2459;1.0994;0.2987;1.165
4.381000;-0.2292;1.0221;0.3532;1.105
4.386000;-0.2058;0.9948;0.4100;1.095
4.391000;-0.1685;0.9673;0.4476;1.079
4.396000;-0.1175;0.9300;0.4852;1.056
4.404000;-0.1078;0.8802;0.4773;1.007
4.407000;-0.0364;0.8587;0.4909;0.990
4.411000;-0.0275;0.8273;0.5259;0.981
4.416000;-0.0354;0.7952;0.5012;0.941
4.452000;-0.0740;0.8511;0.3139;0.910
4.453000;-0.0930;0.8535;0.6288;1.064
4.453000;-0.1422;0.8887;0.4868;1.023
4.454000;-0.2049;0.9351;0.4286;1.049
4.454000;-0.2666;0.9381;0.4995;1.096
4.454000;-0.3466;0.9455;0.4484;1.102
4.455000;-0.4207;0.9048;0.4835;1.109
4.455000;-0.4435;0.9139;0.5233;1.143
4.460000;-0.5060;0.8846;0.5821;1.174
4.465000;-0.5771;0.8454;0.6170;1.195
4.470000;-0.6089;0.7796;0.6662;1.193
4.475000;-0.6634;0.7398;0.7369;1.237
4.479000;-0.7119;0.6684;0.8744;1.311
4.484000;-0.6831;0.6368;0.9543;1.335
4.489000;-0.6273;0.6138;1.0677;1.382
4.494000;-0.5569;0.6062;1.1474;1.412
4.499000;-0.4795;0.6429;1.1649;1.414
4.504000;-0.3501;0.6781;1.1083;1.346
4.508000;-0.2458;0.7267;0.9299;1.206
4.514000;-0.0563;0.7600;0.6228;0.984
4.522000;-0.0064;0.7598;0.3208;0.825
4.524000;-0.0028;0.7057;0.0407;0.707
4.529000;-0.0429;0.6798;-0.1243;0.692
4.566000;-0.0884;0.6156;-0.1887;0.650
4.567000;-0.1821;0.5565;-0.1287;0.600
4.567000;-0.2429;0.5287;-0.0114;0.582
4.568000;-0.3548;0.4749;0.1439;0.610
4.568000;-0.4388;0.4633;0.3612;0.733
4.568000;-0.4634;0.4289;0.6117;0.879
4.569000;-0.4958;0.3686;0.7901;1.003
4.569000;-0.4547;0.3204;0.9110;1.067
4.572000;-0.3833;0.2575;0.9528;1.059
4.578000;-0.3120;0.1821;0.9946;1.058
4.582000;-0.2146;0.1133;0.9862;1.016
4.587000;-0.1292;0.1107;0.9371;0.952
4.592000;-0.0653;0.0856;0.8595;0.866
4.597000;-0.0108;0.0788;0.7270;0.731
4.603000;0.0346;0.0831;0.5444;0.552
4.606000;0.0278;0.1035;0.3574;0.373
4.611000;0.0125;0.1259;0.1634;0.207
4.637000;-0.0422;0.1507;0.0032;0.157
4.638000;-0.1433;0.1401;-0.1306;0.239
4.638000;-0.2812;0.1258;-0.2092;0.372
4.639000;-0.4293;0.0941;-0.1849;0.477
4.639000;-0.4879;0.0166;-0.0914;0.497
4.642000;-0.5124;-0.1233;0.1095;0.538
4.647000;-0.5653;-0.2035;0.3962;0.720
4.652000;-0.6020;-0.3753;0.6850;0.986
4.656000;-0.6682;-0.5694;0.9351;1.283
4.660000;-0.6971;-0.7409;1.2231;1.591
4.666000;-0.7105;-0.9384;1.4653;1.880
4.670000;-0.5890;-1.0521;1.6905;2.076
4.676000;-0.4380;-1.1423;1.8556;2.223
4.680000;-0.2767;-1.2121;1.9775;2.336
4.685000;-0.1031;-1.3073;1.9368;2.339
4.690000;0.0522;-1.2921;1.8148;2.228
4.695000;0.1464;-1.2622;1.6021;2.045
4.701000;0.2229;-1.1958;1.3348;1.806
4.705000;0.2630;-1.1213;1.0439;1.554
4.710000;0.3007;-1.0240;0.7797;1.322
4.715000;0.2861;-0.8677;0.5684;1.076
4.723000;0.2602;-0.7195;0.3765;0.853
4.725000;0.2158;-0.5960;0.1395;0.649
4.732000;0.1409;-0.4851;-0.0710;0.510
4.760000;0.0529;-0.3888;-0.2763;0.480
4.761000;0.0258;-0.2951;-0.4814;0.565
4.762000;0.0144;-0.2323;-0.6169;0.659
4.762000;0.0114;-0.2216;-0.7092;0.743
4.762000;0.0332;-0.2101;-0.7847;0.813
4.762000;0.1060;-0.2027;-0.8577;0.888
4.764000;0.1575;-0.2138;-0.9210;0.959
4.771000;0.2424;-0.2191;-1.0082;1.060
4.774000;0.2884;-0.2518;-1.1096;1.174
4.778000;0.3624;-0.2449;-1.1488;1.229
4.783000;0.4311;-0.2963;-1.1640;1.276
4.788000;0.4656;-0.3291;-1.1626;1.295
4.793000;0.4516;-0.3816;-1.1349;1.280
4.798000;0.4108;-0.4849;-1.0475;1.225
4.803000;0.3533;-0.5245;-0.9292;1.124
4.809000;0.3508;-0.5677;-0.7489;1.003
4.812000;0.3004;-0.5794;-0.6119;0.895
4.832000;0.2616;-0.6505;-0.5205;0.873
4.833000;0.2440;-0.7262;-0.4650;0.896
4.834000;0.2145;-0.7735;-0.4023;0.898
4.834000;0.2186;-0.7545;-0.3589;0.864
4.837000;0.2344;-0.7290;-0.3514;0.843
4.842000;0.2760;-0.6851;-0.4227;0.851
4.847000;0.2881;-0.6564;-0.5011;0.875
4.852000;0.3353;-0.6403;-0.7132;1.015
4.857000;0.4104;-0.5745;-0.9251;1.164
4.862000;0.4371;-0.5661;-1.0889;1.303
4.867000;0.4582;-0.4805;-1.2214;1.390
4.872000;0.4713;-0.3896;-1.2677;1.407
4.877000;0.5003;-0.2862;-1.2948;1.417
4.882000;0.5523;-0.1729;-1.3410;1.461
4.886000;0.5871;-0.0978;-1.4206;1.540
4.892000;0.5473;-0.0392;-1.5240;1.620
4.896000;0.5909;0.0029;-1.6058;1.711
4.903000;0.5844;0.0928;-1.6420;1.745
4.908000;0.5810;0.1522;-1.6709;1.776
4.911000;0.5595;0.2305;-1.6640;1.771
4.916000;0.5370;0.2656;-1.6619;1.767
4.920000;0.5088;0.3006;-1.6646;1.766
4.925000;0.4871;0.3143;-1.6433;1.743
4.930000;0.4555;0.3231;-1.5576;1.655
4.944000;0.4401;0.2845;-1.5174;1.605
4.946000;0.3830;0.2487;-1.4008;1.473
4.946000;0.3250;0.2609;-1.2557;1.323
4.950000;0.2564;0.2567;-1.1180;1.175
4.954000;0.2123;0.2550;-0.9182;0.976
4.959000;0.1519;0.2437;-0.8167;0.866
4.964000;0.0630;0.2493;-0.6962;0.742
4.969000;-0.0427;0.2141;-0.6093;0.647
4.974000;-0.0555;0.2437;-0.5201;0.577
4.979000;-0.1001;0.2446;-0.4573;0.528
4.984000;-0.1359;0.2481;-0.3682;0.464
4.989000;-0.1869;0.2755;-0.3295;0.468
4.994000;-0.1814;0.2980;-0.2788;0.447
4.999000;-0.1912;0.3204;-0.2903;0.473
5.005000;-0.1658;0.3378;-0.2827;0.471
5.010000;-0.1029;0.3812;-0.2703;0.478
5.016000;-0.0265;0.3863;-0.2722;0.473
5.038000;0.0731;0.4032;-0.2932;0.504
5.039000;0.1648;0.4079;-0.2808;0.522
5.039000;0.2274;0.4604;-0.2755;0.583
5.039000;0.2776;0.4836;-0.2726;0.621
5.040000;0.3463;0.5446;-0.2697;0.699
5.043000;0.4216;0.6026;-0.2716;0.784
5.048000;0.5135;0.6646;-0.3046;0.893
5.053000;0.5835;0.6972;-0.3328;0.968
5.058000;0.6105;0.7313;-0.4350;1.047
5.062000;0.6069;0.7933;-0.4749;1.106
5.067000;0.5680;0.8283;-0.5005;1.122
5.072000;0.5181;0.9011;-0.5165;1.161
5.077000;0.4811;0.9399;-0.4561;1.150
5.082000;0.4473;0.9879;-0.4029;1.157
5.087000;0.3975;1.0117;-0.2852;1.124
5.092000;0.3627;0.9919;-0.2251;1.080
5.097000;0.3523;0.9979;-0.2559;1.089
5.102000;0.3304;0.9983;-0.0429;1.052
5.107000;0.3136;0.9791;0.0193;1.028
5.111000;0.2925;0.9690;0.0909;1.016
5.117000;0.2124;0.9463;0.1553;0.982
5.122000;0.1854;0.9375;0.2841;0.997
5.126000;0.1230;0.9259;0.3505;0.998
5.131000;0.0874;0.9165;0.4575;1.028
5.155000;0.0762;0.8900;0.5357;1.042
5.157000;0.0706;0.8392;0.5851;1.025
5.158000;0.0561;0.7785;0.6631;1.024
5.158000;0.0233;0.7227;0.7792;1.063
5.158000;0.0294;0.6337;0.9550;1.146
5.161000;-0.0238;0.5781;1.1234;1.264
5.165000;-0.0196;0.5510;1.2915;1.404
5.171000;-0.0037;0.5429;1.3758;1.479
5.175000;-0.0028;0.5174;1.4409;1.531
5.180000;-0.0406;0.4244;1.3912;1.455
5.184000;-0.0717;0.3885;1.3750;1.431
5.189000;-0.1108;0.3595;1.3158;1.369
5.195000;-0.1192;0.3808;1.2615;1.323
5.199000;-0.0944;0.3901;1.2240;1.288
5.205000;-0.0509;0.4303;1.2487;1.322
5.209000;-0.0249;0.5422;1.2447;1.358
5.214000;0.0150;0.6850;1.2120;1.392
5.242000;0.0498;0.7961;1.0934;1.353
5.243000;0.0728;0.8711;0.9510;1.292
5.244000;0.0485;0.8265;0.7514;1.118
5.244000;-0.0222;0.7654;0.6023;0.974
5.244000;-0.0722;0.6503;0.4772;0.810
5.245000;-0.1823;0.5820;0.4073;0.733
5.248000;-0.3114;0.6513;0.5191;0.889
5.254000;-0.4891;0.6530;0.5972;1.011
5.258000;-0.6183;0.5707;0.7686;1.140
5.263000;-0.6898;0.3973;0.9444;1.235
5.268000;-0.7351;0.2974;1.1727;1.416
5.273000;-0.6664;0.1965;1.3433;1.512
5.278000;-0.6086;0.1203;1.5113;1.634
5.283000;-0.5452;0.0542;1.5931;1.685
5.288000;-0.4525;-0.0070;1.5744;1.638
5.293000;-0.3400;-0.0060;1.4650;1.504
5.298000;-0.2485;-0.0714;1.2481;1.275
5.303000;-0.1941;-0.1362;1.0195;1.047
5.308000;-0.2471;-0.2552;0.9227;0.989
5.312000;-0.3709;-0.3231;0.8571;0.988
5.317000;-0.3879;-0.3928;0.8417;1.007
5.322000;-0.3905;-0.4932;0.8958;1.095
5.327000;-0.5098;-0.5889;1.0501;1.307
5.331000;-0.6572;-0.6829;1.1876;1.519
5.357000;-0.7190;-0.7253;1.3560;1.698
5.358000;-0.7486;-0.7768;1.4645;1.819
5.359000;-0.7396;-0.8303;1.5059;1.872
5.360000;-0.6496;-0.8173;1.4397;1.778
5.360000;-0.5414;-0.7622;1.2900;1.593
5.361000;-0.4817;-0.6987;1.0496;1.350
5.367000;-0.4370;-0.6096;0.6876;1.018
5.372000;-0.5198;-0.5569;0.4120;0.866
5.376000;-0.5387;-0.4011;0.1345;0.685
5.380000;-0.3785;-0.2211;-0.1164;0.454
5.387000;-0.2238;-0.0471;-0.4387;0.495
5.391000;-0.0553;-0.0149;-0.8036;0.806
5.395000;0.0075;-0.0034;-1.1130;1.113
5.400000;0.1199;-0.0352;-1.3049;1.311
5.405000;0.1449;-0.0856;-1.4965;1.506
5.411000;0.1469;-0.1132;-1.5709;1.582
5.415000;0.1550;-0.1814;-1.4301;1.450
5.422000;0.0496;-0.2660;-1.2011;1.231
5.425000;-0.0332;-0.3798;-0.7885;0.876
5.429000;-0.1203;-0.4992;-0.3597;0.627
5.451000;-0.1734;-0.6399;0.0159;0.663
5.451000;-0.2639;-0.7883;0.3312;0.895
5.452000;-0.4080;-0.9430;0.6103;1.195
5.452000;-0.5526;-1.0475;0.8867;1.479
5.461000;-0.6160;-1.1196;1.1245;1.702
5.463000;-0.6434;-1.1432;1.2520;1.813
5.464000;-0.6322;-1.1601;1.3269;1.872
5.469000;-0.5802;-1.2205;1.2654;1.851
5.475000;-0.5538;-1.2197;1.1275;1.751
5.479000;-0.4386;-1.2079;0.9277;1.585
5.484000;-0.2635;-1.1802;0.6300;1.364
5.489000;-0.1004;-1.0453;0.2850;1.088
5.494000;0.0006;-0.9676;-0.0644;0.970
5.498000;0.0824;-0.8391;-0.4420;0.952
5.504000;0.1328;-0.6688;-0.7570;1.019
5.508000;0.1279;-0.5183;-1.0573;1.184
5.513000;0.1417;-0.3775;-1.2950;1.356
5.518000;0.1648;-0.2439;-1.4847;1.514
5.523000;0.1781;-0.1126;-1.6502;1.664
5.527000;0.1481;0.0784;-1.8274;1.835
5.533000;0.1060;0.1954;-1.9351;1.948
5.559000;0.0329;0.3391;-2.0618;2.090
5.560000;-0.0475;0.4352;-2.1740;2.218
5.561000;-0.1397;0.5795;-2.2549;2.332
5.563000;-0.2437;0.6811;-2.3190;2.429
5.563000;-0.3282;0.8501;-2.3711;2.540
5.564000;-0.4266;0.9526;-2.3992;2.616
5.567000;-0.5195;1.0315;-2.4607;2.718
5.572000;-0.6328;1.1013;-2.5508;2.849
5.576000;-0.7181;1.1908;-2.5809;2.932
5.581000;-0.7847;1.2213;-2.5991;2.977
5.587000;-0.8059;1.2481;-2.5455;2.947
5.591000;-0.8131;1.2356;-2.4130;2.830
5.596000;-0.8231;1.1913;-2.2186;2.649
5.601000;-0.7767;1.0889;-2.0291;2.430
5.606000;-0.6931;0.9759;-1.8040;2.165
5.611000;-0.6231;0.8668;-1.5840;1.910
5.616000;-0.5293;0.7375;-1.3857;1.657
5.623000;-0.4576;0.6048;-1.1949;1.415
5.625000;-0.3531;0.5020;-1.0259;1.195
5.630000;-0.2666;0.4056;-0.8523;0.981
5.636000;-0.2363;0.3250;-0.6885;0.797
5.653000;-0.2005;0.2819;-0.5179;0.623
5.654000;-0.1715;0.2042;-0.2591;0.372
5.654000;-0.0874;0.1443;-0.0437;0.174
5.655000;-0.1227;0.0945;0.0470;0.162
5.660000;-0.2245;0.0759;0.1568;0.284
5.665000;-0.3156;0.0761;0.2567;0.414
5.669000;-0.3598;0.1331;0.3398;0.513
5.675000;-0.4334;0.2132;0.4037;0.630
5.679000;-0.4502;0.2489;0.4580;0.689
5.684000;-0.4509;0.2452;0.4763;0.700
5.690000;-0.4090;0.2326;0.4300;0.637
5.694000;-0.3508;0.2181;0.3313;0.529
5.699000;-0.2451;0.2308;0.2111;0.397
5.704000;-0.1494;0.1897;0.0815;0.255
5.709000;-0.0515;0.1428;-0.0048;0.152
5.714000;0.0460;0.0786;-0.0720;0.116
5.719000;0.1700;0.0376;-0.0602;0.184
5.727000;0.2487;0.0246;-0.0125;0.250
5.733000;0.3396;0.0081;0.0256;0.341
5.734000;0.4278;0.0381;0.0134;0.430
5.769000;0.4682;0.0286;-0.0633;0.473
5.771000;0.4630;0.0443;-0.2020;0.507
5.771000;0.4219;0.1092;-0.3047;0.532
5.772000;0.3902;0.1376;-0.1754;0.449
5.772000;0.3801;0.2593;-0.6318;0.782
5.772000;0.3601;0.3500;-0.4710;0.689
5.773000;0.3494;0.3836;-0.5709;0.771
5.773000;0.3194;0.4441;-0.6182;0.825
5.778000;0.2491;0.3908;-0.5936;0.753
5.782000;0.2343;0.3288;-0.4902;0.635
5.788000;0.2538;0.2798;-0.3607;0.522
5.792000;0.2666;0.1816;-0.2217;0.391
5.797000;0.2519;0.0936;-0.0542;0.274
5.802000;0.2265;-0.0394;0.1131;0.256
5.807000;0.1786;-0.1078;0.3113;0.375
5.812000;0.1131;-0.1881;0.5069;0.552
5.817000;0.0251;-0.2496;0.7094;0.752
5.823000;-0.1070;-0.3375;0.8448;0.916
5.826000;-0.1616;-0.4379;1.0015;1.105
5.831000;-0.2135;-0.5312;1.1677;1.300
5.836000;-0.2633;-0.6295;1.2977;1.466
5.858000;-0.2496;-0.6846;1.4061;1.584
5.859000;-0.1636;-0.6873;1.5215;1.678
5.859000;-0.0224;-0.6687;1.6223;1.755
5.859000;0.0923;-0.5836;1.6370;1.740
5.862000;0.1476;-0.5158;1.5321;1.623
5.866000;0.1893;-0.4630;1.3819;1.470
5.870000;0.1822;-0.4127;1.1292;1.216
5.877000;0.1987;-0.3622;0.8792;0.971
5.880000;0.1365;-0.3277;0.6390;0.731
5.885000;0.0607;-0.2846;0.4828;0.564
5.890000;-0.0332;-0.2589;0.4009;0.478
5.895000;-0.1255;-0.2240;0.4361;0.506
5.899000;-0.1561;-0.1869;0.5406;0.593
5.905000;-0.1823;-0.1718;0.7335;0.775
5.909000;-0.2308;-0.1860;0.8997;0.947
5.915000;-0.2993;-0.2750;1.0969;1.170
5.919000;-0.3731;-0.4078;1.3105;1.422
5.925000;-0.4018;-0.5894;1.5860;1.739
5.929000;-0.4887;-0.7338;1.8206;2.023
5.934000;-0.5452;-0.9276;2.0621;2.326
5.949000;-0.6408;-1.1447;2.2794;2.630
5.950000;-0.6942;-1.3402;2.4296;2.860
5.950000;-0.7172;-1.5572;2.6203;3.131
5.954000;-0.7939;-1.7247;2.8180;3.398
5.959000;-0.7597;-1.8624;2.9366;3.559
5.964000;-0.7036;-1.9734;3.0073;3.665
5.968000;-0.6024;-2.0150;2.9800;3.647
5.973000;-0.5310;-2.0088;2.8929;3.562
5.978000;-0.4399;-1.9310;2.8131;3.440
5.983000;-0.2492;-1.8084;2.6306;3.202
5.989000;-0.0887;-1.5722;2.1614;2.674
5.994000;0.0467;-1.3339;1.4967;2.005
5.998000;0.1092;-1.0833;0.7826;1.341
6.003000;0.1664;-0.8026;0.0765;0.823
6.007000;0.1497;-0.5001;-0.4400;0.683
6.013000;0.0766;-0.1848;-0.8221;0.846
6.017000;0.0673;0.1363;-1.1678;1.178
6.024000;0.0484;0.3631;-1.4867;1.531
6.027000;-0.0296;0.5459;-1.8436;1.923
6.032000;-0.1418;0.6422;-2.1258;2.225
6.036000;-0.2657;0.7340;-2.2762;2.406
6.055000;-0.3458;0.8075;-2.3379;2.497
6.056000;-0.4322;0.8247;-2.2656;2.449
6.057000;-0.5319;0.7712;-2.0357;2.241
6.057000;-0.6121;0.6066;-1.6482;1.860
6.061000;-0.6329;0.3783;-1.2324;1.436
6.067000;-0.6455;0.1119;-0.7525;0.998
6.072000;-0.5815;-0.1142;-0.3497;0.688
6.076000;-0.4944;-0.3364;-0.0930;0.605
6.081000;-0.3178;-0.5197;0.1179;0.620
6.086000;-0.2048;-0.6927;0.2904;0.779
6.092000;-0.0940;-0.8681;0.4914;1.002
6.096000;0.0145;-1.0025;0.6323;1.185
6.101000;0.1177;-1.0897;0.7468;1.326
6.110000;0.2058;-1.1485;0.7846;1.406
6.110000;0.2474;-1.1701;0.7196;1.396
6.116000;0.2950;-1.1377;0.6091;1.324
6.120000;0.2705;-1.0969;0.4845;1.229
6.144000;0.2584;-1.0046;0.3241;1.087
6.145000;0.2503;-0.9308;0.2021;0.985
6.145000;0.2392;-0.8131;0.0778;0.851
6.145000;0.2189;-0.6709;0.0087;0.706
6.146000;0.1559;-0.5477;-0.1416;0.587
6.150000;0.1039;-0.4197;-0.2368;0.493
6.154000;0.0865;-0.2916;-0.3941;0.498
6.162000;0.0757;-0.1706;-0.5441;0.575
6.165000;0.0761;-0.0161;-0.6963;0.701
6.169000;0.0663;0.1291;-0.8412;0.854
6.176000;0.0890;0.2675;-1.0075;1.046
6.179000;0.1034;0.3926;-1.1545;1.224
6.184000;0.1256;0.4448;-1.3301;1.408
6.190000;0.1554;0.5180;-1.4863;1.582
6.194000;0.2167;0.5651;-1.5730;1.685
6.199000;0.2468;0.6008;-1.6237;1.749
6.203000;0.2792;0.5800;-1.6122;1.736
6.210000;0.2994;0.5914;-1.5576;1.693
6.214000;0.2742;0.5609;-1.4887;1.614
6.218000;0.2326;0.5170;-1.3482;1.463
6.226000;0.1509;0.4290;-1.1409;1.228
6.229000;0.0627;0.3896;-0.8859;0.970
6.233000;-0.0080;0.2958;-0.5596;0.633
6.238000;-0.0923;0.2429;-0.2217;0.342
6.263000;-0.1955;0.1535;0.0512;0.254
6.264000;-0.1958;0.0775;0.1875;0.282
6.264000;-0.1888;-0.0142;0.3307;0.381
6.264000;-0.2225;-0.1119;0.4665;0.529
6.265000;-0.2184;-0.1536;0.5519;0.613
6.268000;-0.1839;-0.1655;0.5152;0.572
6.272000;-0.1649;-0.1479;0.4905;0.538
6.277000;-0.1138;-0.0910;0.3988;0.425
6.282000;-0.0835;-0.0329;0.2808;0.295
6.287000;-0.0504;0.0148;0.0866;0.101
6.292000;-0.0119;0.0717;-0.0956;0.120
6.297000;0.0152;0.1331;-0.3181;0.345
6.301000;0.0891;0.2305;-0.5020;0.560
6.309000;0.1547;0.3206;-0.6618;0.751
6.311000;0.2076;0.3797;-0.8979;0.997
6.317000;0.1840;0.4057;-1.0428;1.134
6.321000;0.1563;0.4371;-1.0991;1.193
6.354000;0.1531;0.4331;-1.0620;1.157
6.355000;0.1671;0.4581;-1.0011;1.114
6.355000;0.2221;0.4687;-0.9282;1.063
6.355000;0.2346;0.4790;-0.8292;0.986
6.355000;0.2426;0.4384;-0.7972;0.942
6.356000;0.3109;0.4736;-0.7773;0.962
6.356000;0.4248;0.4936;-0.8004;1.032
6.364000;0.5154;0.5033;-0.8091;1.083
6.365000;0.5994;0.5098;-0.8465;1.156
6.370000;0.6843;0.4920;-0.8767;1.216
6.375000;0.7320;0.5095;-0.8663;1.243
6.380000;0.7670;0.4911;-0.7722;1.194
6.385000;0.7342;0.4962;-0.7189;1.141
6.390000;0.7273;0.5085;-0.6203;1.083
6.394000;0.6579;0.4776;-0.5314;0.971
6.400000;0.6291;0.4301;-0.3877;0.855
6.404000;0.5290;0.3614;-0.2370;0.683
6.410000;0.4556;0.2503;-0.0267;0.520
6.415000;0.3154;0.1592;0.2287;0.421
6.420000;0.1775;0.0786;0.3188;0.373
6.427000;-0.0567;-0.0350;1.0136;1.016
6.429000;-0.2039;-0.1386;1.2773;1.301
6.434000;-0.3625;-0.2181;1.4068;1.469
6.438000;-0.5280;-0.3548;1.7442;1.857
6.466000;-0.6963;-0.4723;1.9186;2.095
6.468000;-0.7677;-0.5420;2.0905;2.292
6.468000;-0.7714;-0.6045;2.3196;2.518
6.468000;-0.7300;-0.5955;2.4934;2.665
6.469000;-0.6033;-0.5636;2.5164;2.648
6.469000;-0.4296;-0.5093;2.3220;2.416
6.476000;-0.3043;-0.4944;2.0537;2.134
6.478000;-0.2506;-0.4987;1.7117;1.800
6.483000;-0.2034;-0.5389;1.4203;1.533
6.487000;-0.1091;-0.5375;1.2774;1.390
6.493000;-0.0826;-0.4516;1.2471;1.329
6.497000;-0.0116;-0.3196;1.1786;1.221
6.502000;0.0494;-0.2042;1.1173;1.137
6.508000;0.0240;-0.1148;0.9462;0.953
6.512000;-0.0658;-0.0466;0.7849;0.789
6.517000;-0.1189;-0.0160;0.6669;0.678
6.522000;-0.2307;0.0014;0.5657;0.611
6.527000;-0.3339;0.0032;0.5626;0.654
6.532000;-0.4164;-0.0297;0.5715;0.708
6.537000;-0.5070;-0.0975;0.5994;0.791
6.571000;-0.5650;-0.2214;0.6441;0.885
6.572000;-0.6555;-0.3274;0.7484;1.047
6.572000;-0.6859;-0.4445;0.9052;1.220
6.573000;-0.6810;-0.5320;1.0427;1.354
6.573000;-0.6370;-0.6453;1.1680;1.479
6.573000;-0.5877;-0.7390;1.2287;1.550
6.574000;-0.5094;-0.8590;1.2320;1.586
6.581000;-0.4191;-0.9192;1.2090;1.576
6.582000;-0.2738;-0.9486;1.1286;1.500
6.586000;-0.1805;-0.9209;1.1201;1.461
6.593000;-0.1203;-0.8582;1.0901;1.393
6.596000;-0.0595;-0.7726;1.0148;1.277
6.600000;-0.0073;-0.6551;0.8703;1.089
6.605000;0.0156;-0.5415;0.6447;0.842
6.610000;0.0813;-0.3772;0.3573;0.526
6.615000;0.1139;-0.2645;0.0106;0.288
6.620000;0.0755;-0.0904;-0.3214;0.342
6.626000;0.0717;-0.0001;-0.6505;0.654
6.629000;0.0593;0.1028;-0.9410;0.948
6.634000;-0.0047;0.1782;-1.1833;1.197
6.639000;-0.0587;0.2151;-1.3584;1.377
6.661000;-0.1863;0.2332;-1.4664;1.497
6.662000;-0.2900;0.2095;-1.4429;1.487
6.663000;-0.3487;0.1438;-1.4169;1.466
6.663000;-0.4442;0.1317;-1.3575;1.434
6.664000;-0.5309;0.0366;-1.2288;1.339
6.669000;-0.6419;-0.0387;-1.0620;1.242
6.673000;-0.7742;-0.1427;-0.8667;1.171
6.679000;-0.7795;-0.2590;-0.6382;1.040
6.684000;-0.7745;-0.4030;-0.3979;0.959
6.688000;-0.7227;-0.5868;-0.2272;0.958
6.694000;-0.6715;-0.7611;-0.0735;1.018
6.700000;-0.5249;-0.9337;0.0609;1.073
6.704000;-0.3808;-1.0458;0.1879;1.129
6.711000;-0.2513;-1.1310;0.2358;1.182
6.713000;-0.1390;-1.1803;0.2047;1.206
6.717000;-0.0561;-1.2296;0.1305;1.238
6.723000;-0.0247;-1.2452;0.0252;1.246
6.727000;0.0194;-1.1838;-0.1182;1.190
6.732000;0.0061;-1.1192;-0.2447;1.146
6.737000;-0.0102;-0.9862;-0.4164;1.071
6.762000;0.0083;-0.8395;-0.5688;1.014
6.762000;-0.0489;-0.6409;-0.6875;0.941
6.763000;-0.1916;-0.4642;-0.7845;0.931
6.763000;-0.3149;-0.3189;-0.9434;1.044
6.763000;-0.4087;-0.1258;-1.0757;1.158
6.767000;-0.5113;0.0242;-1.2079;1.312
6.772000;-0.6314;0.1503;-1.2752;1.431
6.777000;-0.7233;0.2384;-1.2612;1.473
6.782000;-0.8106;0.3381;-1.2377;1.518
6.786000;-0.7663;0.4421;-1.2237;1.510
6.791000;-0.7267;0.5116;-1.2982;1.573
6.797000;-0.6988;0.5420;-1.3655;1.627
6.801000;-0.6650;0.5596;-1.4638;1.702
6.806000;-0.6254;0.6339;-1.4856;1.732
6.813000;-0.5849;0.6886;-1.5480;1.792
6.817000;-0.5727;0.7499;-1.5888;1.848
6.820000;-0.5240;0.7893;-1.6416;1.895
6.828000;-0.4941;0.7760;-1.6107;1.855
6.830000;-0.4925;0.7894;-1.6324;1.879
6.835000;-0.4498;0.7790;-1.6852;1.910
6.861000;-0.4163;0.7880;-1.6877;1.909
6.862000;-0.3850;0.8333;-1.6927;1.926
6.863000;-0.3893;0.8479;-1.7095;1.948
6.863000;-0.3887;0.8489;-1.7120;1.950
6.864000;-0.3738;0.8582;-1.6929;1.934
6.865000;-0.3688;0.8233;-1.5902;1.828
6.870000;-0.3521;0.8134;-1.4923;1.736
6.875000;-0.3096;0.7498;-1.4161;1.632
6.882000;-0.2818;0.7206;-1.2896;1.504
6.884000;-0.2473;0.6491;-1.1681;1.359
6.889000;-0.2057;0.6092;-1.0801;1.257
6.895000;-0.1928;0.5530;-1.0042;1.163
6.899000;-0.1511;0.5329;-0.8925;1.050
6.904000;-0.1256;0.5201;-0.7858;0.951
6.910000;-0.1020;0.4545;-0.6864;0.830
6.914000;-0.0969;0.4244;-0.6158;0.754
6.919000;-0.1056;0.4106;-0.5119;0.665
6.923000;-0.1234;0.3462;-0.4703;0.597
6.929000;-0.1214;0.3386;-0.4025;0.540
6.933000;-0.1666;0.3354;-0.2847;0.470
6.938000;-0.1944;0.3292;-0.2053;0.434
6.971000;-0.2557;0.2606;-0.0829;0.374
6.972000;-0.2977;0.2466;0.0632;0.392
6.972000;-0.2969;0.2034;0.1780;0.401
6.973000;-0.2942;0.1999;0.3189;0.478
6.973000;-0.2994;0.2051;0.4286;0.562
6.973000;-0.3196;0.2041;0.4664;0.601
6.974000;-0.2950;0.2544;0.5329;0.660
6.977000;-0.2328;0.2985;0.5299;0.651
6.982000;-0.1783;0.3268;0.4767;0.605
6.987000;-0.0642;0.3535;0.4021;0.539
6.992000;-0.0219;0.3742;0.3107;0.487
6.997000;-0.0247;0.4247;0.2313;0.484
7.001000;-0.0294;0.4719;0.1712;0.503
7.006000;-0.0570;0.5256;0.1349;0.546
7.012000;-0.1435;0.5883;0.1320;0.620
7.016000;-0.1907;0.6818;0.1937;0.734
7.021000;-0.2466;0.7174;0.2146;0.788
7.027000;-0.2846;0.7455;0.2402;0.833
7.031000;-0.3216;0.7376;0.3111;0.863
7.036000;-0.3360;0.7178;0.3508;0.867
7.070000;-0.3757;0.6884;0.4478;0.903
7.071000;-0.4312;0.6713;0.5112;0.948
7.072000;-0.5145;0.6064;0.6510;1.028
7.072000;-0.5802;0.5848;0.7738;1.130
7.072000;-0.6096;0.5060;0.8918;1.193
7.073000;-0.6219;0.4441;1.0406;1.291
7.073000;-0.6557;0.3748;1.1725;1.395
7.076000;-0.6252;0.2722;1.2709;1.442
7.080000;-0.5665;0.2171;1.3500;1.480
7.086000;-0.4924;0.1693;1.3240;1.423
7.090000;-0.3767;0.0958;1.4940;1.544
7.095000;-0.2437;0.0778;1.1692;1.197
7.100000;-0.1147;0.0085;1.2344;1.240
7.106000;-0.0131;-0.0685;1.3690;1.371
7.114000;0.0016;-0.1152;1.4795;1.484
7.115000;0.0379;-0.2173;1.6305;1.645
7.124000;0.1562;-0.3441;1.8148;1.854
7.126000;0.1991;-0.5147;2.0371;2.111
7.152000;0.2170;-0.7173;2.2974;2.416
7.153000;0.1889;-0.9353;2.6050;2.774
7.153000;0.1199;-1.1025;2.9504;3.152
7.154000;0.0746;-1.2863;3.3025;3.545
7.154000;-0.0401;-1.4156;3.6183;3.886
7.155000;-0.1263;-1.5486;3.8570;4.158
7.164000;-0.2057;-1.7023;4.1122;4.455
7.165000;-0.2122;-1.8128;4.2402;4.616
7.168000;-0.2392;-1.8255;4.3538;4.727
7.173000;-0.2001;-1.8961;4.4122;4.807
7.179000;-0.1696;-1.9318;4.2579;4.679
7.183000;-0.2366;-1.9659;3.9676;4.434
7.188000;-0.2790;-1.9504;3.5821;4.088
7.193000;-0.2520;-1.8603;3.1899;3.701
7.197000;-0.2398;-1.6691;2.8270;3.292
7.202000;-0.2399;-1.3837;2.4002;2.781
7.207000;-0.2475;-1.1501;1.9931;2.314
7.213000;-0.2693;-0.8744;1.4958;1.753
7.217000;-0.3627;-0.6402;0.9944;1.237
7.222000;-0.4003;-0.4108;0.4650;0.738
7.230000;-0.3958;-0.2170;-0.0086;0.451
7.233000;-0.3873;-0.0083;-0.4194;0.571
7.238000;-0.3795;0.1800;-0.8177;0.919
7.287000;-0.3506;0.3151;-1.2106;1.299
7.288000;-0.3388;0.4284;-1.6413;1.730
7.288000;-0.4104;0.5185;-1.9830;2.090
7.288000;-0.4980;0.5453;-2.2216;2.341
7.289000;-0.5033;0.5907;-2.3309;2.457
7.289000;-0.4694;0.5807;-2.3040;2.422
7.289000;-0.4202;0.5197;-2.2030;2.302
7.290000;-0.4036;0.4074;-2.0162;2.096
7.290000;-0.3601;0.2836;-1.8226;1.879
7.290000;-0.2805;0.1408;-1.5886;1.619
7.292000;-0.1865;0.0168;-1.4241;1.436
7.296000;-0.1238;-0.0774;-1.2838;1.292
7.300000;-0.0491;-0.1468;-1.1915;1.202
7.306000;0.0447;-0.2420;-1.0945;1.122
7.311000;0.1697;-0.3080;-1.0716;1.128
7.315000;0.2043;-0.3761;-1.0775;1.159
7.320000;0.2710;-0.4345;-1.0427;1.162
7.325000;0.3222;-0.5046;-0.9579;1.130
7.339000;0.3077;-0.5722;-0.8898;1.102
7.339000;0.2849;-0.6495;-0.7597;1.039
7.340000;0.2442;-0.7050;-0.6848;1.013
7.345000;0.2309;-0.7490;-0.5550;0.960
7.350000;0.2113;-0.7624;-0.4325;0.902
7.354000;0.2017;-0.7862;-0.3484;0.883
7.359000;0.1230;-0.7915;-0.3241;0.864
7.364000;0.0753;-0.7693;-0.2998;0.829
7.369000;0.0108;-0.7552;-0.2852;0.807
7.373000;-0.0757;-0.7466;-0.2824;0.802
7.378000;-0.0964;-0.6793;-0.2295;0.723
7.384000;-0.0922;-0.6131;-0.2411;0.665
7.388000;-0.0278;-0.5363;-0.3149;0.623
7.395000;-0.0083;-0.5157;-0.5366;0.744
7.399000;0.0455;-0.4959;-0.7437;0.895
7.404000;0.1075;-0.4407;-0.9100;1.017
7.408000;0.2019;-0.4119;-1.0258;1.124
7.415000;0.2811;-0.2973;-1.1390;1.210
7.418000;0.4099;-0.2402;-1.1828;1.275
7.423000;0.4858;-0.1883;-1.2433;1.348
7.429000;0.5710;-0.1536;-1.2846;1.414
7.433000;0.6037;-0.1671;-1.3521;1.490
7.437000;0.5984;-0.1689;-1.3574;1.493
7.468000;0.6125;-0.1590;-1.3531;1.494
7.469000;0.6484;-0.1280;-1.3059;1.464
7.469000;0.6370;-0.0879;-1.2683;1.422
7.469000;0.6187;-0.0486;-1.2116;1.361
7.470000;0.5888;-0.0506;-1.2315;1.366
7.470000;0.5354;-0.0748;-1.2156;1.330
7.471000;0.5615;-0.0471;-1.2427;1.365
7.477000;0.5640;-0.0200;-1.2531;1.374
7.482000;0.6288;-0.0005;-1.3400;1.480
7.486000;0.6793;0.0282;-1.4339;1.587
7.492000;0.6655;0.0284;-1.5445;1.682
7.497000;0.6185;0.0410;-1.6214;1.736
7.501000;0.6101;0.0496;-1.6218;1.733
7.506000;0.6447;0.0857;-1.5815;1.710
7.516000;0.6430;0.1084;-1.4839;1.621
7.518000;0.5979;0.1175;-1.4389;1.563
7.521000;0.5287;0.1082;-1.3820;1.484
7.563000;0.4906;0.0829;-1.2989;1.391
7.564000;0.4045;0.0726;-1.2111;1.279
7.564000;0.3422;0.0797;-1.0876;1.143
7.565000;0.3158;0.1255;-0.9498;1.009
7.565000;0.3130;0.1212;-0.8767;0.939
7.565000;0.3054;0.1432;-0.7846;0.854
7.566000;0.2810;0.1173;-0.7977;0.854
7.566000;0.2829;0.0960;-0.7607;0.817
7.568000;0.3185;0.0987;-0.7141;0.788
7.570000;0.3427;0.1228;-0.6581;0.752
7.576000;0.3530;0.0965;-0.5663;0.674
7.582000;0.3807;0.0984;-0.4866;0.626
7.585000;0.3685;0.0542;-0.3879;0.538
7.590000;0.3760;0.0690;-0.3467;0.516
7.595000;0.3649;0.0543;-0.2746;0.460
7.600000;0.3808;0.0914;-0.2288;0.454
7.605000;0.3376;0.1132;-0.1713;0.395
7.609000;0.3237;0.1676;-0.1425;0.391
7.615000;0.3106;0.1735;-0.0947;0.368
7.619000;0.2575;0.1954;-0.0446;0.326
7.624000;0.2549;0.2118;0.0007;0.331
7.630000;0.2146;0.2468;0.0052;0.327
7.637000;0.1388;0.2692;0.0312;0.304
7.639000;0.0871;0.3058;0.0667;0.325
7.677000;0.0261;0.3543;0.1381;0.381
7.678000;-0.0326;0.3574;0.1735;0.399
7.678000;-0.0793;0.3484;0.2519;0.437
7.678000;-0.0852;0.3514;0.3254;0.486
7.679000;-0.0889;0.3112;0.3797;0.499
7.679000;-0.1285;0.2639;0.3957;0.493
7.679000;-0.1658;0.2523;0.3998;0.501
7.680000;-0.2124;0.2290;0.3703;0.485
7.682000;-0.1824;0.1893;0.3792;0.461
7.687000;-0.2047;0.1667;0.4574;0.528
7.693000;-0.2434;0.1586;0.5379;0.611
7.698000;-0.1892;0.1507;0.5848;0.633
7.702000;-0.0974;0.1549;0.6747;0.699
7.707000;0.0150;0.1709;0.7000;0.721
7.713000;0.1171;0.1750;0.6942;0.725
7.717000;0.2351;0.1790;0.6764;0.738
7.722000;0.3429;0.1736;0.6492;0.754
7.727000;0.4092;0.1732;0.6124;0.757
7.746000;0.4369;0.1803;0.6235;0.782
7.746000;0.3571;0.2171;0.6562;0.778
7.747000;0.3111;0.2501;0.6003;0.721
7.747000;0.3209;0.1982;0.6258;0.731
7.751000;0.3292;0.1002;0.8999;0.963
7.756000;0.3644;-0.0439;0.9179;0.989
7.761000;0.4481;-0.2125;1.1700;1.271
7.766000;0.5036;-0.3991;1.5056;1.637
7.771000;0.5763;-0.5799;1.6089;1.805
7.776000;0.5797;-0.8649;1.8125;2.090
7.781000;0.5690;-1.1176;2.0063;2.366
7.786000;0.4983;-1.3526;2.1832;2.616
7.791000;0.4134;-1.5651;2.2786;2.795
7.796000;0.1642;-1.6477;2.4552;2.961
7.800000;0.0159;-1.7463;2.8372;3.332
7.805000;0.0001;-1.7904;3.1446;3.619
7.811000;-0.1730;-1.8673;3.3751;3.861
7.815000;-0.4121;-1.9157;3.5168;4.026
7.820000;-0.6382;-1.8765;3.5604;4.075
7.826000;-0.7109;-1.7599;3.5464;4.022
7.833000;-0.7719;-1.6000;3.3793;3.818
7.835000;-0.7184;-1.3679;3.0976;3.462
7.839000;-0.4622;-1.0852;2.6299;2.882
7.874000;-0.5957;-1.0835;2.1315;2.464
7.875000;-0.6353;-1.0274;1.6840;2.072
7.876000;-0.4688;-0.8207;1.1487;1.488
7.876000;-0.2630;-0.5370;0.7048;0.924
7.876000;-0.1438;-0.2949;0.3572;0.485
7.877000;-0.1614;-0.0916;-0.0066;0.186
7.877000;-0.2196;0.0522;-0.3387;0.407
7.879000;-0.2488;0.1943;-0.6393;0.713
7.884000;-0.2360;0.2873;-0.8869;0.962
7.889000;-0.2069;0.3814;-1.0768;1.161
7.893000;-0.2615;0.4176;-1.3047;1.395
7.900000;-0.3277;0.4224;-1.4463;1.542
7.903000;-0.4362;0.4058;-1.5256;1.638
7.908000;-0.5987;0.3775;-1.5404;1.695
7.914000;-0.7668;0.3353;-1.5290;1.743
7.921000;-0.9669;0.2673;-1.4436;1.758
7.922000;-1.1707;0.1999;-1.2771;1.744
7.927000;-1.4217;0.1163;-0.9867;1.734
7.942000;-1.5778;-0.0001;-0.7300;1.739
7.944000;-1.6328;-0.0444;-0.4928;1.706
7.944000;-1.5855;-0.1322;-0.2918;1.618
7.952000;-1.5225;-0.2801;-0.0957;1.551
7.953000;-1.4374;-0.3928;0.0119;1.490
7.956000;-1.2448;-0.5664;0.1145;1.372
7.964000;-1.0052;-0.6959;0.1574;1.233
7.967000;-0.7265;-0.8627;0.1335;1.136
7.972000;-0.4492;-0.9716;0.1144;1.077
7.977000;-0.2405;-1.0969;0.0357;1.123
7.982000;0.0125;-1.1646;-0.0834;1.168
7.986000;0.2117;-1.2204;-0.2811;1.270
7.992000;0.4012;-1.2305;-0.4641;1.375
7.999000;0.5001;-1.2216;-0.6253;1.461
8.001000;0.5171;-1.2391;-0.7336;1.530
8.008000;0.4911;-1.1728;-0.7676;1.485
8.012000;0.4034;-1.1356;-0.7968;1.445
8.016000;0.3114;-1.0439;-0.7112;1.301
8.022000;0.1803;-0.9461;-0.6019;1.136
8.026000;0.0344;-0.8237;-0.5214;0.975
8.033000;-0.0949;-0.6896;-0.4388;0.823
8.036000;-0.2052;-0.5586;-0.4281;0.733
8.040000;-0.3230;-0.4428;-0.4869;0.733
8.072000;-0.3770;-0.3135;-0.6724;0.832
8.073000;-0.3485;-0.1939;-0.8889;0.974
8.074000;-0.2907;-0.1099;-1.2032;1.243
8.074000;-0.2396;-0.0341;-1.4860;1.506
8.074000;-0.1504;0.0365;-1.7662;1.773
8.075000;-0.0666;0.1338;-1.9599;1.966
8.075000;0.0497;0.2083;-2.1174;2.128
8.079000;0.1004;0.2387;-2.1838;2.199
8.084000;0.0951;0.2803;-2.2143;2.234
8.089000;0.1178;0.3354;-2.2469;2.275
8.093000;0.0825;0.3706;-2.2173;2.250
8.099000;0.0302;0.4313;-2.1877;2.230
8.104000;-0.0746;0.4551;-2.1055;2.155
8.108000;-0.1667;0.4799;-1.9637;2.028
8.115000;-0.2794;0.5081;-1.8244;1.914
8.119000;-0.3766;0.4986;-1.6638;1.777
8.123000;-0.4917;0.4922;-1.4986;1.652
8.161000;-0.5554;0.4649;-1.3696;1.549
8.162000;-0.5751;0.4091;-1.2383;1.425
8.163000;-0.5582;0.3443;-1.1741;1.345
8.163000;-0.4829;0.2897;-1.0766;1.215
8.163000;-0.3779;0.1687;-0.8932;0.984
8.164000;-0.3154;0.0672;-0.7268;0.795
8.164000;-0.2117;0.0229;-0.5749;0.613
8.164000;-0.1509;-0.0431;-0.4065;0.436
8.167000;-0.1713;-0.0548;-0.3125;0.361
8.173000;-0.1773;-0.0459;-0.2186;0.285
8.177000;-0.1571;-0.0521;-0.1559;0.227
8.182000;-0.1849;-0.0449;-0.1219;0.226
8.187000;-0.2250;0.0019;-0.1072;0.249
8.192000;-0.2746;0.0192;-0.1188;0.300
8.197000;-0.3695;0.0619;-0.1519;0.404
8.202000;-0.4499;0.1350;-0.1850;0.505
8.206000;-0.5444;0.2290;-0.2229;0.631
8.215000;-0.5884;0.2772;-0.2058;0.682
8.216000;-0.6750;0.3371;-0.2461;0.794
8.221000;-0.7252;0.3801;-0.2147;0.846
8.226000;-0.7558;0.4038;-0.2335;0.888
8.255000;-0.8051;0.3941;-0.1257;0.905
8.255000;-0.8351;0.4178;-0.0419;0.935
8.256000;-0.8128;0.4363;0.0466;0.924
8.256000;-0.8219;0.4759;0.0968;0.955
8.256000;-0.7838;0.4955;0.1492;0.939
8.256000;-0.7464;0.5024;0.1538;0.913
8.261000;-0.7005;0.5395;0.1536;0.897
8.265000;-0.6674;0.5567;0.0889;0.874
8.270000;-0.6208;0.5659;0.0959;0.845
8.275000;-0.5914;0.6271;0.0361;0.863
8.282000;-0.5575;0.6828;0.0145;0.882
8.285000;-0.5092;0.7211;-0.0238;0.883
8.290000;-0.4867;0.8041;-0.0812;0.943
8.296000;-0.4684;0.8601;-0.1386;0.989
8.300000;-0.4612;0.8941;-0.1698;1.020
8.304000;-0.4814;0.9325;-0.1650;1.062
8.310000;-0.5194;0.9752;-0.1796;1.119
8.319000;-0.5228;1.0037;-0.1726;1.145
8.320000;-0.5900;1.0250;-0.1632;1.194
8.324000;-0.6089;0.9871;-0.1252;1.166
8.335000;-0.6563;0.9402;-0.1183;1.153
8.336000;-0.6228;0.8683;-0.1018;1.073
8.339000;-0.6137;0.7740;-0.0087;0.988
8.344000;-0.5291;0.6051;0.0796;0.808
8.381000;-0.4434;0.4763;0.1583;0.670
8.382000;-0.3161;0.3374;0.2896;0.546
8.383000;-0.2333;0.1999;0.4018;0.506
8.383000;-0.0989;0.0374;0.5569;0.567
8.383000;0.0084;-0.1194;0.6618;0.672
8.384000;0.1084;-0.2587;0.8191;0.866
8.384000;0.1940;-0.3761;0.9546;1.044
8.385000;0.3491;-0.4528;1.1235;1.261
8.388000;0.5044;-0.4964;1.2969;1.477
8.393000;0.6597;-0.5048;1.4438;1.666
8.398000;0.7912;-0.4378;1.5235;1.772
8.402000;0.9012;-0.4101;1.5314;1.824
8.407000;0.8894;-0.3833;1.4986;1.784
8.415000;0.8803;-0.3689;1.3200;1.629
8.417000;0.7690;-0.4430;1.4498;1.700
8.422000;0.7406;-0.3952;1.3142;1.559
8.427000;0.4927;-0.5334;1.6351;1.789
8.453000;0.2000;-0.6091;1.6759;1.794
8.453000;0.0384;-0.6248;1.8814;1.983
8.454000;-0.1042;-0.6332;2.1798;2.272
8.454000;-0.1068;-0.5943;2.2722;2.351
8.455000;-0.1082;-0.6495;2.4433;2.530
8.457000;-0.0920;-0.5885;2.5257;2.595
8.464000;-0.0928;-0.6459;2.5124;2.596
8.466000;-0.1425;-0.8126;2.3676;2.507
8.471000;-0.0800;-0.8084;2.1967;2.342
8.476000;-0.0397;-0.7645;2.0188;2.159
8.482000;0.0427;-0.7354;1.7289;1.879
8.485000;0.0834;-0.7399;1.4584;1.637
8.491000;0.0879;-0.8182;1.1908;1.447
8.495000;0.0666;-0.8050;1.0191;1.300
8.500000;-0.0088;-0.7932;0.9479;1.236
8.505000;-0.0690;-0.7803;0.9558;1.236
8.510000;-0.1203;-0.7120;1.0330;1.260
8.517000;-0.1631;-0.6890;1.1101;1.317
8.520000;-0.2309;-0.6548;1.1774;1.367
8.525000;-0.2855;-0.6597;1.2040;1.402
8.557000;-0.2362;-0.6159;1.2306;1.396
8.557000;-0.1603;-0.5996;1.1638;1.319
8.557000;-0.0987;-0.5683;0.9728;1.131
8.558000;-0.0184;-0.4928;0.7511;0.898
8.558000;0.0138;-0.4233;0.4507;0.618
8.558000;-0.0115;-0.3617;0.1053;0.377
8.559000;-0.0553;-0.2478;-0.1632;0.302
8.567000;-0.1371;-0.1787;-0.4121;0.470
8.569000;-0.1946;-0.0992;-0.6320;0.669
8.573000;-0.2234;-0.0801;-0.7511;0.788
8.581000;-0.2591;-0.0665;-0.8652;0.906
8.584000;-0.3141;-0.1009;-0.9050;0.963
8.589000;-0.3192;-0.1020;-0.9230;0.982
8.594000;-0.3259;-0.1337;-0.9529;1.016
8.598000;-0.3012;-0.1933;-0.8965;0.965
8.604000;-0.2409;-0.2424;-0.7947;0.865
8.608000;-0.1814;-0.3363;-0.6906;0.789
8.616000;-0.1205;-0.4130;-0.6127;0.749
8.618000;-0.1747;-0.5183;-0.5181;0.753
8.624000;-0.1784;-0.6072;-0.4043;0.751
8.628000;-0.2147;-0.6823;-0.2572;0.760
8.656000;-0.2139;-0.7180;-0.0839;0.754
8.657000;-0.2092;-0.7891;0.0534;0.818
8.658000;-0.2191;-0.8753;0.2121;0.927
8.658000;-0.2046;-0.9099;0.3466;0.995
8.658000;-0.2037;-0.9586;0.3997;1.058
8.659000;-0.2158;-0.9737;0.4144;1.080
8.663000;-0.1429;-0.9700;0.4313;1.071
8.667000;-0.0502;-0.9117;0.3548;0.980
8.672000;0.0404;-0.8039;0.2257;0.836
8.677000;0.2050;-0.7227;0.0201;0.751
8.682000;0.3401;-0.6700;-0.2666;0.797
8.686000;0.4501;-0.5614;-0.6008;0.937
8.692000;0.4989;-0.4344;-0.8964;1.114
8.698000;0.5058;-0.3362;-1.1606;1.310
8.701000;0.4853;-0.1781;-1.3265;1.424
8.706000;0.4158;-0.0387;-1.4204;1.480
8.711000;0.3667;0.0964;-1.5261;1.573
8.716000;0.3361;0.1579;-1.5815;1.624
8.721000;0.2551;0.2437;-1.6391;1.677
8.726000;0.2217;0.2985;-1.6775;1.718
8.734000;0.2243;0.3605;-1.6992;1.751
8.735000;0.2419;0.4105;-1.6945;1.760
8.741000;0.2365;0.4481;-1.6851;1.760
8.745000;0.2826;0.5000;-1.6780;1.774
8.782000;0.3157;0.4893;-1.6663;1.765
8.783000;0.3169;0.5095;-1.6067;1.715
8.784000;0.3248;0.5199;-1.5568;1.673
8.784000;0.3415;0.5229;-1.4855;1.611
8.784000;0.3428;0.5019;-1.3832;1.511
8.785000;0.3167;0.4857;-1.2189;1.350
8.785000;0.2988;0.4505;-1.0978;1.224
8.785000;0.2508;0.4322;-0.9171;1.044
8.790000;0.2295;0.4043;-0.7725;0.902
8.794000;0.2062;0.3833;-0.6400;0.774
8.801000;0.1231;0.3622;-0.5435;0.665
8.804000;0.0853;0.3648;-0.4663;0.598
8.810000;0.0062;0.4056;-0.3868;0.560
8.814000;-0.0639;0.3988;-0.3217;0.516
8.819000;-0.1251;0.4065;-0.2519;0.494
8.825000;-0.1678;0.4051;-0.1750;0.472
8.829000;-0.2257;0.4062;-0.0742;0.471
8.834000;-0.2270;0.4268;-0.0190;0.484
8.842000;-0.2342;0.4621;0.0122;0.518
8.843000;-0.2470;0.4712;0.0578;0.535
8.883000;-0.2465;0.4757;0.1033;0.546
8.883000;-0.2162;0.4656;0.1081;0.525
8.885000;-0.1918;0.4768;0.1105;0.526
8.885000;-0.1704;0.4972;0.1224;0.540
8.885000;-0.0967;0.5241;0.1558;0.555
8.885000;-0.0543;0.5502;0.1150;0.565
8.886000;0.0026;0.5512;0.0622;0.555
8.887000;0.0525;0.5177;-0.0312;0.521
8.887000;0.1317;0.5625;-0.1748;0.604
8.893000;0.1516;0.5589;-0.2297;0.623
8.898000;0.1673;0.5741;-0.2416;0.645
8.904000;0.1952;0.5630;-0.1674;0.619
8.907000;0.2398;0.5592;-0.1076;0.618
8.912000;0.3152;0.5502;-0.0312;0.635
8.918000;0.3565;0.5146;0.0187;0.626
8.922000;0.3832;0.4330;0.0328;0.579
8.926000;0.4145;0.4301;0.0946;0.605
8.935000;0.4625;0.3955;0.1539;0.628
8.939000;0.5060;0.4103;0.2369;0.693
8.941000;0.5140;0.3856;0.2673;0.696
8.946000;0.4703;0.4126;0.2784;0.685
8.976000;0.4037;0.4357;0.2966;0.664
8.977000;0.3621;0.4578;0.2909;0.652
8.977000;0.3264;0.5028;0.2492;0.649
8.978000;0.2438;0.5663;0.2316;0.659
8.978000;0.1667;0.5935;0.2187;0.654
8.978000;0.0782;0.5898;0.2680;0.652
8.980000;0.0045;0.5671;0.3220;0.652
8.987000;-0.0283;0.5357;0.3856;0.661
8.990000;-0.0491;0.4881;0.4970;0.698
8.995000;-0.1036;0.4486;0.5820;0.742
9.000000;-0.1225;0.3999;0.6454;0.769
9.005000;-0.1798;0.3522;0.7183;0.820
9.010000;-0.1845;0.2788;0.8223;0.888
9.017000;-0.1704;0.2181;0.9285;0.969
9.020000;-0.1448;0.1842;1.0274;1.054
9.024000;-0.0983;0.1270;1.1311;1.142
9.030000;-0.0524;0.0772;1.2155;1.219
9.035000;0.0570;0.1041;1.3021;1.308
9.039000;0.1628;0.1976;1.3433;1.367
9.045000;0.2987;0.2741;1.2673;1.331
9.072000;0.3671;0.3404;1.1077;1.216
9.073000;0.5211;0.3469;0.8120;1.025
9.073000;0.5322;0.3991;0.5885;0.888
9.073000;0.5358;0.5432;0.4490;0.885
9.074000;0.4357;0.6479;0.3503;0.856
9.074000;0.4106;0.5707;0.2208;0.737
9.078000;0.2160;0.3889;0.2660;0.518
9.083000;0.1137;0.3973;0.3710;0.555
9.088000;-0.0018;0.4616;0.8298;0.950
9.093000;-0.3082;0.4022;0.8483;0.988
9.098000;-0.6502;0.4626;1.0796;1.343
9.103000;-0.7742;0.4678;1.4135;1.678
9.109000;-0.8269;0.2549;1.5368;1.764
9.113000;-0.8852;0.0719;1.5619;1.797
9.120000;-1.0063;-0.1432;1.6039;1.899
9.123000;-1.1355;-0.4384;1.6506;2.051
9.127000;-1.2166;-0.7130;1.7261;2.229
9.169000;-1.2639;-0.9583;1.9760;2.534
9.170000;-1.2014;-1.1749;2.1396;2.721
9.170000;-0.9597;-1.2639;2.4487;2.918
9.170000;-0.7522;-1.3695;2.5709;3.008
9.171000;-0.5414;-1.4933;2.5517;3.006
9.171000;-0.3275;-1.5516;2.3507;2.836
9.172000;-0.0989;-1.5212;2.0541;2.558
9.172000;0.0966;-1.5139;1.6428;2.236
9.172000;0.1971;-1.4189;1.2653;1.911
9.176000;0.3433;-1.2430;0.8905;1.567
9.181000;0.4105;-1.0690;0.5423;1.267
9.186000;0.4416;-0.8345;0.1801;0.961
9.191000;0.4083;-0.5987;-0.1220;0.735
9.196000;0.3183;-0.3780;-0.3974;0.634
9.201000;0.2034;-0.2176;-0.6462;0.712
9.206000;0.0782;-0.0378;-0.8708;0.875
9.211000;-0.0086;0.0922;-0.9969;1.001
9.216000;-0.1428;0.2344;-1.0680;1.103
9.220000;-0.2469;0.3052;-1.1317;1.198
9.225000;-0.3079;0.3736;-1.1761;1.272
9.230000;-0.3705;0.3611;-1.1774;1.286
9.235000;-0.4136;0.3059;-1.1548;1.264
9.240000;-0.4319;0.2202;-1.0390;1.147
9.245000;-0.3799;0.1348;-0.8874;0.975
9.272000;-0.3919;0.0018;-0.8460;0.932
9.273000;-0.4010;-0.1859;-0.7926;0.908
9.273000;-0.4169;-0.3561;-0.7249;0.909
9.273000;-0.4971;-0.5636;-0.6023;0.963
9.273000;-0.5102;-0.7197;-0.4057;0.971
9.274000;-0.5238;-0.8744;-0.1280;1.027
9.279000;-0.5030;-1.0304;0.0801;1.149
9.284000;-0.4871;-1.2118;0.2354;1.327
9.289000;-0.4861;-1.3708;0.3786;1.503
9.293000;-0.4267;-1.4689;0.4668;1.599
9.299000;-0.2665;-1.5642;0.5405;1.676
9.304000;-0.1376;-1.6443;0.5687;1.745
9.309000;-0.1122;-1.6951;0.5395;1.782
9.313000;-0.0426;-1.7217;0.5653;1.813
9.319000;0.0306;-1.6862;0.5336;1.769
9.323000;0.0881;-1.6583;0.4947;1.733
9.329000;0.1683;-1.5380;0.3626;1.589
9.336000;0.2192;-1.4143;0.2042;1.446
9.338000;0.3054;-1.2731;0.0101;1.309
9.342000;0.3580;-1.1455;-0.2268;1.221
9.347000;0.3363;-0.9597;-0.5543;1.158
9.388000;0.3439;-0.8371;-0.9125;1.285
9.389000;0.3308;-0.6938;-1.1914;1.418
9.389000;0.2935;-0.5198;-1.4101;1.531
9.389000;0.2517;-0.3222;-1.5496;1.603
9.390000;0.2245;-0.1200;-1.6794;1.699
9.390000;0.1979;-0.0065;-1.7970;1.808
9.391000;0.1814;0.1213;-1.9024;1.915
9.391000;0.1202;0.2181;-2.0483;2.063
9.392000;0.0956;0.3079;-2.1031;2.128
9.397000;0.0335;0.3506;-2.1506;2.179
9.405000;-0.0158;0.4061;-2.1813;2.219
9.409000;-0.0263;0.4482;-2.1784;2.224
9.411000;-0.0482;0.4531;-2.1420;2.190
9.419000;-0.0481;0.4996;-2.0960;2.155
9.421000;-0.0520;0.5062;-2.0548;2.117
9.426000;-0.0288;0.5232;-1.9874;2.055
9.431000;-0.0334;0.5173;-1.9223;1.991
9.461000;-0.0923;0.4979;-1.8143;1.884
9.462000;-0.0855;0.4556;-1.7112;1.773
9.462000;-0.1209;0.4309;-1.5364;1.600
9.462000;-0.0929;0.3997;-1.3906;1.450
9.463000;-0.1047;0.3618;-1.2115;1.269
9.463000;-0.0963;0.2882;-1.0302;1.074
9.466000;-0.0487;0.1979;-0.8898;0.913
9.470000;0.0310;0.1099;-0.7568;0.765
9.475000;0.0494;0.0408;-0.6288;0.632
9.480000;0.0635;-0.0238;-0.5344;0.539
9.485000;0.0969;-0.0793;-0.4736;0.490
9.490000;0.1615;-0.1039;-0.3747;0.421
9.495000;0.1948;-0.1122;-0.3142;0.386
9.500000;0.1895;-0.1185;-0.2728;0.353
9.504000;0.1669;-0.1227;-0.2291;0.309
9.509000;0.1679;-0.1153;-0.2213;0.301
9.514000;0.1587;-0.1105;-0.2063;0.283
9.519000;0.1228;-0.1132;-0.1961;0.258
9.524000;0.1224;-0.0660;-0.1955;0.240
9.529000;0.0861;-0.0239;-0.1543;0.178
9.536000;0.0092;-0.0037;-0.1537;0.154
9.539000;-0.0243;0.0019;-0.1054;0.108
9.544000;-0.0649;0.0143;-0.0643;0.093
9.548000;-0.0813;0.0406;-0.0042;0.091
9.582000;-0.1095;0.0615;0.0439;0.133
9.583000;-0.1422;0.1081;0.0751;0.194
9.584000;-0.1987;0.1371;0.0848;0.256
9.584000;-0.2310;0.1771;0.1039;0.309
9.584000;-0.2631;0.2425;0.1039;0.373
9.585000;-0.2064;0.3429;0.0704;0.406
9.585000;-0.2307;0.3443;0.0560;0.418
9.588000;-0.2596;0.3521;0.0296;0.438
9.593000;-0.2595;0.3902;-0.0279;0.469
9.598000;-0.2185;0.4254;-0.0495;0.481
9.604000;-0.1941;0.4958;-0.1141;0.544
9.607000;-0.1601;0.5538;-0.1786;0.604
9.613000;-0.1284;0.5233;-0.2000;0.575
9.619000;-0.1012;0.5358;-0.1975;0.580
9.623000;-0.1192;0.5483;-0.1759;0.588
9.628000;-0.1128;0.5943;-0.1472;0.623
9.634000;-0.1539;0.6281;-0.1424;0.662
9.638000;-0.2183;0.6808;-0.1161;0.724
9.642000;-0.2530;0.7070;-0.0780;0.755
9.647000;-0.2891;0.7072;-0.0256;0.764
9.653000;-0.3292;0.7217;0.0530;0.795
9.661000;-0.3686;0.6886;0.0789;0.785
9.662000;-0.3979;0.6271;0.1215;0.753
9.667000;-0.4170;0.5683;0.1664;0.724
9.700000;-0.4570;0.4908;0.2255;0.708
9.701000;-0.5180;0.3876;0.3253;0.724
9.701000;-0.5495;0.2991;0.5013;0.802
9.702000;-0.5494;0.2063;0.6293;0.860
9.702000;-0.5201;0.1089;0.7500;0.919
9.702000;-0.5096;0.0091;0.8395;0.982
9.703000;-0.5706;-0.1197;0.9336;1.101
9.705000;-0.6003;-0.1958;1.0969;1.266
9.710000;-0.5323;-0.2795;1.2265;1.366
9.715000;-0.4414;-0.2826;1.4157;1.510
9.720000;-0.3132;-0.2081;1.6024;1.646
9.725000;-0.1625;-0.1210;1.6096;1.622
9.730000;-0.0585;0.0066;1.4017;1.403
9.736000;0.0544;0.0438;1.0244;1.027
9.740000;0.0930;0.0486;0.6094;0.618
9.745000;0.0603;0.0704;0.2450;0.262
9.749000;0.0429;0.0407;0.0676;0.090
9.773000;0.0241;0.0584;0.1484;0.161
9.774000;0.0448;0.1827;-0.0528;0.195
9.774000;0.0569;0.2700;0.1691;0.324
9.774000;0.0703;0.2915;0.1972;0.359
9.775000;0.0299;0.3071;0.1679;0.351
9.779000;0.0217;0.2976;0.2222;0.372
9.784000;0.0264;0.3018;0.2741;0.409
9.789000;0.0248;0.2692;0.4000;0.483
9.794000;-0.0099;0.1904;0.4946;0.530
9.798000;-0.0870;0.0940;0.6250;0.638
9.803000;-0.1993;-0.0005;0.8102;0.834
9.809000;-0.3179;-0.1224;0.9761;1.034
9.813000;-0.4239;-0.2695;1.1871;1.289
9.818000;-0.5720;-0.4441;1.3668;1.547
9.823000;-0.6809;-0.6109;1.6061;1.848
9.828000;-0.7147;-0.7800;1.8211;2.106
9.833000;-0.7454;-0.9374;1.9571;2.294
9.838000;-0.6652;-1.0836;2.0641;2.424
9.843000;-0.6156;-1.1900;2.2810;2.645
9.847000;-0.4996;-1.2906;2.3447;2.723
9.879000;-0.3918;-1.3314;2.3438;2.724
9.880000;-0.2399;-1.2911;2.3262;2.671
9.880000;-0.1143;-1.1960;2.1055;2.424
9.881000;-0.0032;-1.0869;1.7704;2.077
9.881000;0.0928;-0.8963;1.2876;1.572
9.881000;0.1668;-0.6642;0.7434;1.011
9.882000;0.1925;-0.4158;0.1998;0.500
9.887000;0.1777;-0.1886;-0.2354;0.350
9.892000;0.1154;0.0331;-0.6653;0.676
9.896000;0.0161;0.2356;-0.9895;1.017
9.902000;-0.0428;0.3810;-1.2104;1.270
9.906000;-0.1611;0.4888;-1.3714;1.465
9.911000;-0.2663;0.5161;-1.4413;1.554
9.916000;-0.3556;0.4991;-1.3821;1.512
9.920000;-0.4688;0.4280;-1.2035;1.361
9.925000;-0.5366;0.3024;-0.8746;1.070
9.931000;-0.5357;0.1482;-0.5007;0.748
9.936000;-0.4666;-0.0309;-0.1488;0.491
9.942000;-0.3636;-0.2500;0.1143;0.456
9.946000;-0.2297;-0.4710;0.2839;0.596
9.954000;-0.1112;-0.7041;0.3720;0.804
9.960000;-0.0273;-0.8628;0.4363;0.967
9.960000;0.1743;-0.9694;0.5267;1.117
9.965000;0.3381;-1.0952;0.5669;1.279
10.002000;0.4591;-1.1500;0.5951;1.374
10.003000;0.5468;-1.1960;0.5444;1.423
10.004000;0.6111;-1.2456;0.4867;1.470
10.005000;0.6879;-1.2558;0.3477;1.473
10.006000;0.6846;-1.1722;0.1683;1.368
10.006000;0.6779;-1.0615;0.0106;1.260
10.007000;0.6133;-0.9334;-0.1636;1.129
10.007000;0.5484;-0.7688;-0.3639;1.012
10.009000;0.4810;-0.5507;-0.6046;0.949
10.014000;0.4039;-0.3462;-0.8378;0.992
10.019000;0.3101;-0.1740;-1.0923;1.149
10.024000;0.2047;-0.0383;-1.2891;1.306
10.029000;0.1743;0.0946;-1.4714;1.485
10.034000;0.1679;0.2179;-1.5650;1.589
10.038000;0.1497;0.2913;-1.6465;1.679
10.043000;0.1580;0.3433;-1.7040;1.745
10.048000;0.1572;0.4075;-1.7208;1.775
10.074000;0.1518;0.4790;-1.7782;1.848
10.075000;0.1538;0.5196;-1.8259;1.905
10.075000;0.1490;0.5223;-1.8521;1.930
10.075000;0.1253;0.5638;-1.8735;1.960
10.075000;0.0833;0.5579;-1.8566;1.940
10.078000;0.0610;0.5407;-1.8038;1.884
10.082000;0.0444;0.5074;-1.7440;1.817
10.087000;0.0218;0.4528;-1.6198;1.682
10.093000;-0.0071;0.3796;-1.5052;1.552
10.098000;-0.0352;0.3591;-1.3957;1.442
10.102000;-0.0577;0.3293;-1.2671;1.310
10.107000;-0.0988;0.2804;-1.1961;1.232
10.112000;-0.1060;0.3033;-1.1156;1.161
10.117000;-0.1349;0.3212;-1.0304;1.088
10.122000;-0.1833;0.3586;-1.0123;1.089
10.127000;-0.1941;0.3532;-0.9965;1.075
10.132000;-0.2105;0.3701;-0.9353;1.028
10.139000;-0.1966;0.3806;-0.8956;0.993
10.142000;-0.1766;0.3681;-0.8105;0.908
10.147000;-0.1386;0.3732;-0.7015;0.807
10.190000;-0.1039;0.3837;-0.5711;0.696
10.192000;-0.0676;0.3872;-0.4886;0.627
10.192000;-0.0462;0.4240;-0.4277;0.604
10.192000;0.0800;0.4628;-0.4410;0.644
10.193000;0.0768;0.4989;-0.4900;0.704
10.193000;0.1408;0.4632;-0.4267;0.645
10.193000;0.1998;0.4730;-0.3563;0.625
10.193000;0.2799;0.4993;-0.2812;0.638
10.194000;0.3571;0.5278;-0.2420;0.682
10.195000;0.4507;0.5270;-0.1837;0.717
10.201000;0.4911;0.5352;-0.2067;0.755
10.205000;0.5575;0.5473;-0.2441;0.819
10.210000;0.5472;0.5566;-0.2670;0.825
10.215000;0.5780;0.6297;-0.2446;0.889
10.220000;0.5831;0.6781;-0.2748;0.936
10.225000;0.5867;0.6946;-0.2692;0.948
10.230000;0.5839;0.7413;-0.2302;0.971
10.234000;0.5580;0.7585;-0.2535;0.975
10.241000;0.5521;0.7463;-0.2123;0.952
10.244000;0.5232;0.7505;-0.1927;0.935
10.250000;0.5166;0.7231;-0.1588;0.903
10.278000;0.4796;0.7360;-0.0892;0.883
10.278000;0.4170;0.7340;0.0066;0.844
10.279000;0.3718;0.7268;0.0640;0.819
10.279000;0.3679;0.7429;0.1260;0.839
10.279000;0.3626;0.7489;0.1664;0.849
10.280000;0.3698;0.7114;0.1899;0.824
10.283000;0.3922;0.6448;0.1727;0.774
10.288000;0.3749;0.5778;0.1412;0.703
10.293000;0.3254;0.4823;0.1717;0.607
10.299000;0.2941;0.4014;0.2380;0.552
10.304000;0.2570;0.3638;0.3735;0.581
10.308000;0.2448;0.3307;0.5016;0.649
10.314000;0.1999;0.2615;0.5841;0.670
10.318000;0.1723;0.1632;0.6210;0.665
10.323000;0.1308;0.0929;0.5957;0.617
10.328000;0.0422;0.0412;0.5370;0.540
10.333000;0.0094;0.0154;0.4926;0.493
10.339000;-0.0443;0.0440;0.3574;0.363
10.342000;-0.0519;-0.0044;0.2535;0.259
10.347000;-0.1092;0.0044;0.1497;0.185
10.388000;-0.1823;-0.0298;0.0723;0.198
10.388000;-0.2549;-0.0635;0.1216;0.289
10.389000;-0.2506;-0.0111;0.2211;0.334
10.389000;-0.1581;0.0818;0.3277;0.373
10.389000;-0.0330;0.1957;0.3912;0.439
10.390000;0.0959;0.3090;0.3160;0.452
10.390000;0.2027;0.4069;0.2074;0.500
10.390000;0.2418;0.4831;0.0680;0.544
10.392000;0.2039;0.4780;-0.0640;0.524
10.397000;0.1618;0.4834;-0.1840;0.542
10.401000;0.0229;0.4376;-0.2583;0.509
10.409000;-0.0428;0.3866;-0.3277;0.509
10.411000;-0.1042;0.3092;-0.2967;0.441
10.416000;-0.2160;0.2514;-0.1413;0.360
10.423000;-0.3660;0.2254;-0.0579;0.434
10.427000;-0.4734;0.1281;0.6183;0.789
10.430000;-0.5983;-0.0433;1.0116;1.176
10.472000;-0.7677;-0.1697;1.3353;1.550
10.473000;-0.9147;-0.3543;1.8355;2.081
10.473000;-0.9517;-0.6148;2.0866;2.374
10.473000;-0.9487;-0.9245;2.3423;2.691
10.474000;-0.9186;-1.2360;2.4974;2.934
10.474000;-0.8115;-1.5658;2.6069;3.147
10.475000;-0.7213;-1.7734;2.7833;3.378
10.475000;-0.6102;-1.8854;2.9261;3.534
10.475000;-0.4082;-1.9579;3.0113;3.615
10.480000;-0.1975;-1.9767;2.9959;3.595
10.485000;-0.0020;-1.9640;2.8204;3.437
10.490000;0.2170;-1.8607;2.4442;3.080
10.495000;0.3865;-1.6862;1.9800;2.629
10.500000;0.4887;-1.4283;1.5234;2.145
10.504000;0.4222;-1.1202;1.1176;1.638
10.511000;0.3197;-0.7785;0.8292;1.182
10.514000;0.2613;-0.4843;0.5365;0.769
10.518000;0.1784;-0.2422;0.2488;0.390
10.524000;0.1053;-0.0324;0.0092;0.111
10.529000;-0.0245;0.0856;-0.2731;0.287
10.533000;-0.1147;0.2247;-0.4451;0.512
10.538000;-0.2511;0.2952;-0.5763;0.694
10.543000;-0.4123;0.3481;-0.5902;0.800
10.548000;-0.5079;0.3695;-0.5346;0.825
10.571000;-0.6009;0.2975;-0.3979;0.780
10.572000;-0.6637;0.1467;-0.1871;0.705
10.572000;-0.7024;-0.0274;0.0403;0.704
10.572000;-0.7709;-0.2197;0.2603;0.843
10.573000;-0.7247;-0.3850;0.4563;0.939
10.578000;-0.6673;-0.5666;0.5733;1.046
10.582000;-0.6304;-0.7047;0.6472;1.146
10.588000;-0.5634;-0.8737;0.6900;1.248
10.592000;-0.4970;-1.0000;0.7114;1.324
10.597000;-0.4401;-1.0980;0.7089;1.379
10.602000;-0.3632;-1.2158;0.6564;1.429
10.607000;-0.2749;-1.3369;0.6853;1.527
10.612000;-0.1578;-1.4596;0.7406;1.644
10.616000;-0.0711;-1.5600;0.7863;1.748
10.622000;0.0601;-1.5841;0.8130;1.782
10.626000;0.1428;-1.6356;0.8443;1.846
10.632000;0.2517;-1.5933;1.0047;1.900
10.641000;0.4423;-1.4707;1.1073;1.893
10.642000;0.3921;-1.3314;1.0446;1.737
10.646000;0.2490;-1.2422;0.8527;1.527
10.650000;0.2081;-1.2074;0.7516;1.437
10.697000;0.1410;-1.0212;0.5905;1.188
10.698000;0.0608;-0.7674;0.3626;0.851
10.698000;0.0046;-0.5003;0.0487;0.503
10.699000;-0.0310;-0.2097;-0.2985;0.366
10.699000;-0.0757;0.0361;-0.7911;0.795
10.699000;-0.0819;0.2503;-1.2544;1.282
10.700000;-0.0785;0.4483;-1.6860;1.746
10.700000;-0.0699;0.5926;-1.9688;2.057
10.700000;-0.0605;0.7627;-2.2153;2.344
10.703000;-0.0640;0.8154;-2.4134;2.548
10.705000;-0.0561;0.8967;-2.5251;2.680
10.710000;-0.0356;0.9540;-2.5503;2.723
10.716000;0.0334;1.0205;-2.5562;2.753
10.720000;0.0650;1.0316;-2.5427;2.745
10.724000;0.0571;0.9730;-2.4789;2.664
10.729000;0.0494;0.8968;-2.3982;2.561
10.735000;0.0330;0.8697;-2.2313;2.395
10.744000;0.0233;0.8526;-2.0599;2.229
10.745000;0.0371;0.8592;-1.8838;2.071
10.748000;-0.0155;0.7863;-1.6650;1.841
10.782000;-0.0936;0.7052;-1.5016;1.662
10.783000;-0.1538;0.6298;-1.3815;1.526
10.784000;-0.2127;0.6126;-1.2141;1.376
10.784000;-0.2342;0.6197;-1.0662;1.255
10.785000;-0.2447;0.6150;-0.9666;1.172
10.785000;-0.2327;0.6321;-0.9152;1.136
10.785000;-0.2414;0.6256;-0.9430;1.157
10.789000;-0.2740;0.6273;-0.9900;1.204
10.793000;-0.2764;0.6139;-1.0682;1.263
10.798000;-0.2829;0.5768;-1.0889;1.264
10.803000;-0.2443;0.5693;-1.1429;1.300
10.808000;-0.2663;0.5535;-1.1108;1.269
10.812000;-0.3112;0.4868;-1.1096;1.251
10.818000;-0.3367;0.4608;-1.0293;1.177
10.823000;-0.3712;0.4467;-0.8605;1.038
10.828000;-0.4216;0.3674;-0.6965;0.893
10.832000;-0.4931;0.2732;-0.5516;0.789
10.840000;-0.5350;0.2353;-0.3255;0.669
10.842000;-0.5802;0.2078;-0.1306;0.630
10.847000;-0.5685;0.1516;0.0569;0.591
10.852000;-0.5712;0.0830;0.1795;0.604
10.881000;-0.5785;0.0060;0.2829;0.644
10.882000;-0.5328;-0.0580;0.3645;0.648
10.882000;-0.4959;-0.0855;0.3621;0.620
10.882000;-0.4871;-0.1339;0.4027;0.646
10.883000;-0.4871;-0.1601;0.4383;0.675
10.883000;-0.4865;-0.1570;0.4521;0.682
10.886000;-0.4668;-0.0981;0.4014;0.623
10.890000;-0.4161;-0.0622;0.3458;0.545
10.896000;-0.3994;-0.0014;0.2233;0.458
10.901000;-0.4283;0.0940;0.1487;0.463
10.906000;-0.4595;0.2004;0.0597;0.505
10.911000;-0.4860;0.2988;0.0187;0.571
10.915000;-0.4720;0.4064;-0.0438;0.624
10.920000;-0.4678;0.5114;-0.1301;0.705
10.925000;-0.4517;0.5802;-0.1493;0.750
10.930000;-0.4569;0.5868;-0.1829;0.766
10.935000;-0.4834;0.6152;-0.1734;0.801
10.940000;-0.4882;0.6486;-0.1471;0.825
10.945000;-0.4925;0.6515;-0.0636;0.819
10.950000;-0.5127;0.6907;-0.0040;0.860
10.979000;-0.5057;0.7443;0.0698;0.903
10.979000;-0.5289;0.7571;0.1220;0.932
10.979000;-0.5747;0.7607;0.2290;0.981
10.980000;-0.6551;0.7431;0.3407;1.048
10.980000;-0.7196;0.6660;0.4521;1.080
10.980000;-0.7180;0.6128;0.5705;1.103
10.984000;-0.7391;0.5573;0.7222;1.174
10.990000;-0.8090;0.4779;0.8497;1.267
10.994000;-0.8657;0.3627;0.9770;1.355
10.999000;-0.8857;0.2687;1.1088;1.444
11.004000;-0.8787;0.1695;1.2190;1.512
11.010000;-0.8355;0.0936;1.3696;1.607
11.014000;-0.7730;0.0599;1.4769;1.668
11.019000;-0.6939;0.0445;1.5554;1.704
11.024000;-0.5819;0.0619;1.5526;1.659
11.029000;-0.4614;0.0880;1.5546;1.624
11.033000;-0.3782;0.0729;1.4467;1.497
11.041000;-0.3536;0.1102;1.3773;1.426
11.042000;-0.3141;0.0929;1.2554;1.297
11.047000;-0.2863;0.1410;1.1004;1.146
11.053000;-0.2512;0.1856;0.9481;0.998
11.090000;-0.1965;0.2484;0.8296;0.888
11.091000;-0.2412;0.2797;0.8190;0.898
11.092000;-0.2316;0.2866;0.8108;0.891
11.092000;-0.2484;0.2715;0.8482;0.925
11.092000;-0.2550;0.2704;0.9142;0.987
11.093000;-0.2367;0.2900;0.9395;1.011
11.093000;-0.2337;0.2514;0.9791;1.038
11.093000;-0.2645;0.1094;1.1573;1.192
11.096000;-0.3167;-0.0139;1.1249;1.169
11.102000;-0.4021;-0.2194;1.4199;1.492
11.109000;-0.5080;-0.4018;1.5806;1.708
11.112000;-0.6365;-0.6599;1.8820;2.093
11.116000;-0.7705;-0.9394;2.1781;2.494
11.122000;-0.8244;-1.1669;2.4689;2.853
11.126000;-0.8821;-1.4364;2.6541;3.144
11.131000;-0.8301;-1.6142;2.7721;3.313
11.136000;-0.8027;-1.7605;2.9639;3.540
11.141000;-0.7489;-1.8254;3.0742;3.653
11.145000;-0.5526;-1.8313;3.0911;3.635
11.151000;-0.3303;-1.7428;3.0482;3.527
11.158000;-0.2001;-1.6653;2.7735;3.241
11.160000;0.0042;-1.5386;2.2674;2.740
11.165000;0.1320;-1.3575;1.6185;2.117
11.170000;0.2496;-1.1088;0.9465;1.479
11.201000;0.3068;-0.8271;0.3114;0.935
11.202000;0.2939;-0.5062;-0.1962;0.617
11.202000;0.2423;-0.1934;-0.6885;0.755
11.203000;0.1839;0.0980;-1.0750;1.095
11.203000;0.0834;0.3130;-1.4487;1.485
11.203000;-0.0744;0.5163;-1.6952;1.774
11.205000;-0.2070;0.6315;-1.9030;2.016
11.209000;-0.2843;0.7712;-2.0363;2.196
11.214000;-0.3655;0.8447;-2.0784;2.273
11.219000;-0.4255;0.8688;-2.0225;2.242
11.224000;-0.4782;0.8482;-1.8447;2.086
11.229000;-0.4944;0.7535;-1.6575;1.887
11.234000;-0.4595;0.5841;-1.4324;1.614
11.239000;-0.4543;0.3893;-1.2052;1.346
11.243000;-0.4210;0.1996;-0.9212;1.032
11.249000;-0.3458;-0.0164;-0.6495;0.736
11.254000;-0.1834;-0.2069;-0.4094;0.494
11.260000;-0.0044;-0.4345;-0.2581;0.505
11.263000;0.1593;-0.6490;-0.1860;0.694
11.268000;0.2852;-0.8527;-0.1858;0.918
11.315000;0.4323;-1.0141;-0.2357;1.127
11.316000;0.5591;-1.0947;-0.2880;1.262
11.317000;0.6890;-1.1467;-0.3353;1.379
11.317000;0.8074;-1.1417;-0.3491;1.441
11.318000;0.9213;-1.1322;-0.3748;1.507
11.318000;0.9899;-1.1138;-0.4148;1.547
11.319000;0.9966;-1.0912;-0.5335;1.571
11.319000;0.9393;-1.0169;-0.6066;1.511
11.319000;0.8731;-0.9171;-0.7705;1.482
11.319000;0.7698;-0.7822;-0.8624;1.396
11.323000;0.6513;-0.6028;-0.9661;1.312
11.327000;0.5326;-0.4173;-1.0674;1.264
11.331000;0.4352;-0.2519;-1.1900;1.292
11.336000;0.3572;-0.1019;-1.2719;1.325
11.342000;0.2630;-0.0199;-1.3490;1.375
11.347000;0.2126;0.0374;-1.4643;1.480
11.351000;0.2063;0.1227;-1.5603;1.579
11.379000;0.2298;0.2240;-1.6157;1.647
11.380000;0.2210;0.3246;-1.6974;1.742
11.380000;0.2207;0.3554;-1.7766;1.825
11.381000;0.2458;0.3836;-1.8654;1.920
11.381000;0.2198;0.4000;-1.9493;2.002
11.381000;0.2383;0.4238;-1.9496;2.009
11.385000;0.2100;0.4817;-1.9618;2.031
11.392000;0.2018;0.5379;-1.9213;2.005
11.396000;0.1512;0.5805;-1.8690;1.963
11.401000;0.0629;0.5808;-1.8168;1.908
11.406000;-0.0059;0.6180;-1.7502;1.856
11.410000;-0.1390;0.6443;-1.6048;1.735
11.415000;-0.2335;0.6453;-1.4404;1.596
11.420000;-0.2919;0.6638;-1.2523;1.447
11.425000;-0.3431;0.6806;-1.0715;1.315
11.430000;-0.4034;0.6736;-0.9221;1.211
11.434000;-0.4157;0.6595;-0.8302;1.139
11.442000;-0.3923;0.6192;-0.7384;1.040
11.445000;-0.3977;0.5862;-0.6587;0.967
11.449000;-0.3792;0.5366;-0.5718;0.871
11.454000;-0.3202;0.4968;-0.5161;0.785
11.491000;-0.2353;0.4693;-0.4295;0.678
11.491000;-0.1608;0.4442;-0.3859;0.610
11.492000;-0.0515;0.4166;-0.3590;0.552
11.492000;0.0041;0.3916;-0.3441;0.521
11.492000;0.1207;0.3401;-0.3316;0.490
11.492000;0.2219;0.3341;-0.3095;0.507
11.493000;0.2673;0.3186;-0.2946;0.510
11.493000;0.3188;0.3077;-0.2606;0.514
11.498000;0.3458;0.3658;-0.2051;0.544
11.503000;0.3097;0.4305;-0.2261;0.577
11.508000;0.3043;0.4517;-0.2615;0.604
11.513000;0.2775;0.5060;-0.2849;0.644
11.518000;0.2556;0.5742;-0.3202;0.705
11.523000;0.2363;0.6299;-0.3364;0.752
11.530000;0.2365;0.6661;-0.3550;0.791
11.533000;0.1966;0.6828;-0.3640;0.798
11.538000;0.1068;0.7040;-0.3707;0.803
11.543000;0.0700;0.7011;-0.3391;0.782
11.548000;0.0552;0.6886;-0.2765;0.744
11.552000;0.0477;0.6639;-0.2355;0.706
11.560000;0.0783;0.6177;-0.1349;0.637
11.562000;0.0898;0.5521;-0.0367;0.561
11.567000;0.1251;0.5126;0.0685;0.532
11.571000;0.1701;0.4488;0.1640;0.507
11.612000;0.1580;0.4322;0.2736;0.535
11.612000;0.1488;0.4314;0.3878;0.599
11.613000;0.1354;0.4368;0.4827;0.665
11.613000;0.1155;0.4435;0.5392;0.708
11.613000;0.1392;0.4396;0.5836;0.744
11.613000;0.1590;0.4991;0.6231;0.814
11.614000;0.1937;0.4952;0.6123;0.811
11.614000;0.2077;0.5000;0.5393;0.764
11.615000;0.1819;0.5592;0.4472;0.739
11.621000;0.1282;0.5987;0.3505;0.706
11.625000;0.0921;0.6072;0.2443;0.661
11.631000;0.0711;0.5781;0.2338;0.628
11.635000;-0.0307;0.5287;0.2234;0.575
11.643000;-0.0527;0.4735;0.2729;0.549
11.647000;-0.0141;0.4482;0.4154;0.611
11.650000;0.0299;0.4932;0.5794;0.761
11.655000;0.0879;0.5222;0.7050;0.882
11.690000;0.1360;0.5352;0.7731;0.950
11.690000;0.1599;0.5321;0.8698;1.032
11.691000;0.1763;0.5274;0.9378;1.090
11.691000;0.1971;0.5041;0.9388;1.084
11.691000;0.2321;0.4791;0.9016;1.047
11.691000;0.2288;0.3787;0.8621;0.969
11.692000;0.1730;0.3062;0.8442;0.915
11.694000;0.1050;0.2310;0.8885;0.924
11.699000;-0.0373;0.1365;0.9879;0.998
11.704000;-0.1704;0.0635;1.1159;1.131
11.709000;-0.2753;-0.0139;1.3180;1.346
11.714000;-0.3476;-0.1057;1.4888;1.533
11.718000;-0.4948;-0.2499;1.6477;1.738
11.725000;-0.6593;-0.4062;1.8590;2.014
11.728000;-0.8239;-0.6125;2.1132;2.349
11.734000;-0.9339;-0.8599;2.4557;2.764
11.739000;-0.9702;-1.1200;2.8265;3.191
11.745000;-0.9953;-1.2696;3.3523;3.720
11.748000;-1.0766;-1.5226;3.4951;3.961
11.753000;-1.1049;-1.7787;3.9341;4.457
11.802000;-0.9489;-1.9038;3.5934;4.176
11.803000;-0.7281;-1.9492;3.9534;4.468
11.803000;-0.4102;-2.0214;4.1121;4.600
11.804000;-0.1264;-2.0640;3.9143;4.427
11.805000;0.1547;-2.1471;3.7237;4.301
11.805000;0.3287;-2.0966;3.2845;3.910
11.806000;0.4439;-2.0344;2.8529;3.532
11.806000;0.5822;-1.7617;2.3308;2.979
11.807000;0.6360;-1.5287;1.7854;2.435
11.807000;0.6767;-1.1796;1.3076;1.887
11.808000;0.7760;-0.6528;1.1146;1.507
11.813000;0.7235;-0.3739;0.6206;1.024
11.817000;0.4791;-0.0857;0.0341;0.488
11.822000;0.2268;0.1365;-0.5111;0.576
11.826000;0.0973;0.3603;-0.8787;0.955
11.832000;-0.0161;0.5745;-1.0953;1.237
11.836000;-0.1332;0.7438;-1.2854;1.491
11.845000;-0.2418;0.9167;-1.4657;1.746
11.847000;-0.4208;1.0281;-1.6817;2.016
11.851000;-0.5403;1.0582;-1.8497;2.198
11.856000;-0.6055;0.9859;-1.9386;2.258
11.905000;-0.7075;0.8811;-1.9104;2.220
11.906000;-0.7894;0.7250;-1.8249;2.116
11.906000;-0.8013;0.5440;-1.6702;1.931
11.906000;-0.8295;0.3401;-1.4177;1.677
11.906000;-0.8696;0.1848;-1.1464;1.451
11.907000;-0.9148;-0.0638;-0.8420;1.245
11.907000;-0.9275;-0.2744;-0.5380;1.107
11.908000;-0.8940;-0.4904;-0.2629;1.053
11.908000;-0.8460;-0.6935;-0.0742;1.096
11.908000;-0.7546;-0.8528;0.0856;1.142
11.910000;-0.6350;-1.0191;0.2668;1.230
11.915000;-0.5712;-1.1805;0.4144;1.375
11.919000;-0.5209;-1.2900;0.6048;1.517
11.925000;-0.4293;-1.3647;0.7353;1.609
11.929000;-0.3450;-1.3767;0.8035;1.631
11.934000;-0.3022;-1.3360;0.7665;1.570
11.939000;-0.2385;-1.3313;0.5837;1.473
11.943000;-0.1468;-1.2453;0.2936;1.288
11.949000;-0.0196;-1.2211;-0.0439;1.222
11.954000;0.0644;-1.1290;-0.4097;1.203
11.983000;0.1611;-1.0426;-0.6937;1.263
11.984000;0.2064;-0.9665;-0.9176;1.349
11.984000;0.2128;-0.8621;-1.0767;1.396
11.984000;0.1828;-0.7705;-1.2188;1.454
11.984000;0.1883;-0.7056;-1.3393;1.525
11.985000;0.1598;-0.6102;-1.5121;1.638
11.988000;0.1669;-0.5364;-1.6752;1.767
11.993000;0.1330;-0.4624;-1.7949;1.858
11.998000;0.1010;-0.3332;-1.8930;1.925
12.003000;0.0568;-0.2371;-2.0196;2.034
12.009000;-0.0039;-0.2004;-2.1579;2.167
12.013000;-0.0310;-0.1125;-2.3199;2.323
12.018000;-0.1103;-0.0521;-2.3861;2.389
12.023000;-0.1417;-0.0525;-2.5382;2.543
12.027000;-0.0170;0.0969;-2.5418;2.544
12.032000;-0.0181;0.2570;-2.3567;2.371
12.037000;-0.2416;0.3561;-2.3510;2.390
12.045000;-0.3936;0.3874;-2.4074;2.470
12.047000;-0.4092;0.3178;-2.3656;2.422
12.051000;-0.4220;0.3454;-2.2092;2.275
12.056000;-0.4264;0.3331;-2.1079;2.176
12.103000;-0.5209;0.3813;-2.0665;2.165
12.104000;-0.5667;0.4302;-1.9439;2.070
12.105000;-0.5422;0.4392;-1.7953;1.926
12.105000;-0.5070;0.4436;-1.6922;1.821
12.105000;-0.5116;0.3935;-1.6299;1.753
12.106000;-0.4699;0.3532;-1.5941;1.699
12.106000;-0.4035;0.3228;-1.5320;1.617
12.107000;-0.3962;0.3071;-1.4700;1.553
12.107000;-0.3883;0.2848;-1.3747;1.457
12.108000;-0.3390;0.2772;-1.2627;1.336
12.111000;-0.3344;0.2891;-1.1318;1.215
12.115000;-0.2812;0.2866;-1.0178;1.094
12.121000;-0.2803;0.2673;-0.9016;0.981
12.125000;-0.3055;0.2360;-0.8094;0.897
12.131000;-0.3256;0.2336;-0.7150;0.820
12.135000;-0.3744;0.2356;-0.6230;0.764
12.140000;-0.3801;0.2471;-0.5288;0.697
12.145000;-0.3643;0.2418;-0.4729;0.644
12.150000;-0.4083;0.2245;-0.4123;0.622
12.154000;-0.4498;0.2310;-0.2992;0.588
12.161000;-0.5273;0.2756;-0.1815;0.622
12.164000;-0.5621;0.2938;-0.1475;0.651
12.169000;-0.5901;0.2999;-0.0562;0.664
12.174000;-0.6447;0.2916;0.0590;0.710
12.212000;-0.6708;0.3068;0.1692;0.757
12.212000;-0.6544;0.3335;0.2458;0.775
12.213000;-0.6960;0.3310;0.3151;0.833
12.213000;-0.7313;0.2993;0.4275;0.898
12.213000;-0.7195;0.3244;0.5492;0.962
12.213000;-0.6704;0.3581;0.6803;1.020
12.214000;-0.6274;0.3834;0.7874;1.077
12.214000;-0.5759;0.4453;0.8418;1.113
12.218000;-0.5085;0.4980;0.8242;1.089
12.223000;-0.4133;0.5035;0.7350;0.982
12.228000;-0.3643;0.5265;0.5909;0.871
12.233000;-0.2964;0.5793;0.4278;0.779
12.238000;-0.2856;0.6238;0.2887;0.744
12.245000;-0.2523;0.6750;0.2118;0.751
12.247000;-0.2374;0.7713;0.1876;0.828
12.252000;-0.2692;0.8266;0.1777;0.887
12.257000;-0.2975;0.8748;0.1653;0.939
12.294000;-0.3796;0.8824;0.2414;0.990
12.294000;-0.4343;0.8950;0.3268;1.047
12.295000;-0.4759;0.8863;0.4265;1.093
12.295000;-0.4856;0.8969;0.5332;1.151
12.295000;-0.4659;0.8788;0.5704;1.147
12.295000;-0.4931;0.8227;0.6744;1.173
12.296000;-0.5461;0.7310;0.7043;1.153
12.297000;-0.5626;0.6517;0.7627;1.150
12.302000;-0.5428;0.5609;0.8760;1.173
12.306000;-0.5041;0.4802;0.9869;1.208
12.311000;-0.3989;0.4671;1.1239;1.281
12.316000;-0.2874;0.4232;1.2154;1.319
12.320000;-0.2009;0.3893;1.2997;1.372
12.326000;-0.1084;0.3577;1.2884;1.341
12.331000;0.0023;0.2979;1.2699;1.304
12.336000;0.0858;0.2528;1.2085;1.238
12.341000;0.1426;0.1365;1.1807;1.197
12.349000;0.1588;0.0498;1.1911;1.203
12.351000;0.2061;-0.0172;1.2088;1.226
12.356000;0.2201;-0.1003;1.2336;1.257
12.363000;0.2347;-0.2137;1.2918;1.330
12.367000;0.2475;-0.2452;1.3978;1.441
12.372000;0.2373;-0.2451;1.4964;1.535
12.418000;0.2323;-0.2062;1.5901;1.620
12.418000;0.2707;-0.2123;1.6981;1.733
12.419000;0.3098;-0.2730;1.8800;1.925
12.419000;0.3168;-0.3383;2.0066;2.059
12.419000;0.2988;-0.4063;2.0756;2.136
12.420000;0.2181;-0.4939;2.1349;2.202
12.420000;0.1445;-0.5559;2.2036;2.277
12.420000;0.0473;-0.6450;2.2816;2.371
12.421000;-0.0589;-0.7518;2.2159;2.341
12.421000;-0.1852;-0.8571;2.1048;2.280
12.424000;-0.3608;-0.9827;2.3856;2.605
12.429000;-0.4281;-1.1261;2.5082;2.783
12.434000;-0.5432;-1.1514;2.4466;2.758
12.438000;-0.6111;-1.2352;2.5093;2.863
12.445000;-0.5927;-1.3106;2.5170;2.899
12.450000;-0.5511;-1.3463;2.4602;2.858
12.453000;-0.4782;-1.3499;2.4275;2.818
12.458000;-0.3291;-1.2929;2.2897;2.650
12.495000;-0.2510;-1.2111;1.9705;2.327
12.496000;-0.1845;-1.0376;1.5896;1.907
12.496000;-0.0609;-0.8671;1.1209;1.419
12.497000;0.0981;-0.6327;0.5477;0.843
12.497000;0.2069;-0.3670;0.0518;0.424
12.497000;0.2495;-0.1105;-0.3574;0.450
12.497000;0.2461;0.2111;-0.7205;0.790
12.498000;0.2193;0.5042;-1.0641;1.198
12.502000;0.1912;0.7689;-1.3928;1.602
12.507000;0.0768;0.9906;-1.7832;2.041
12.512000;-0.0963;1.1751;-2.1563;2.458
12.517000;-0.2550;1.2893;-2.4238;2.757
12.521000;-0.4507;1.4107;-2.5500;2.949
12.529000;-0.6111;1.4636;-2.5301;2.986
12.532000;-0.6811;1.4795;-2.3406;2.852
12.537000;-0.7038;1.4127;-2.0414;2.580
12.542000;-0.7037;1.2412;-1.6230;2.161
12.547000;-0.6548;0.9717;-1.1525;1.644
12.551000;-0.6012;0.6826;-0.6730;1.132
12.557000;-0.5289;0.3543;-0.2753;0.694
12.609000;-0.3748;0.0701;0.0240;0.382
12.610000;-0.2040;-0.2159;0.2394;0.382
12.611000;0.0062;-0.5252;0.4761;0.709
12.611000;0.2720;-0.7574;0.6552;1.038
12.611000;0.4604;-0.9916;0.7553;1.329
12.612000;0.6903;-1.2154;0.8242;1.623
12.612000;0.8624;-1.4076;0.9217;1.891
12.612000;1.0002;-1.5420;1.0048;2.095
12.613000;1.1517;-1.6981;1.0352;2.298
12.613000;1.1907;-1.7425;0.9723;2.324
12.613000;1.1138;-1.7029;0.9357;2.240
12.615000;0.9533;-1.5389;0.7771;1.970
12.620000;0.7613;-1.3467;0.6354;1.672
12.625000;0.6267;-1.1338;0.4197;1.362
12.630000;0.4529;-0.9312;0.1946;1.054
12.635000;0.2667;-0.7009;-0.0423;0.751
12.639000;0.1236;-0.5120;-0.2743;0.594
12.646000;0.0500;-0.3449;-0.5635;0.663
12.650000;-0.0261;-0.1943;-0.8261;0.849
12.654000;-0.0554;-0.0763;-1.0932;1.097
12.659000;-0.0027;0.0461;-1.3122;1.313
12.709000;0.0449;0.0895;-1.5524;1.556
12.710000;0.1512;0.1168;-1.7397;1.750
12.710000;0.2130;0.1475;-1.8741;1.892
12.711000;0.2303;0.1630;-1.9867;2.007
12.711000;0.2916;0.1965;-2.1039;2.133
12.712000;0.3086;0.2434;-2.1396;2.175
12.712000;0.3438;0.2584;-2.1752;2.217
12.713000;0.3524;0.2482;-2.1223;2.166
12.713000;0.3470;0.2556;-2.0288;2.074
12.713000;0.3853;0.2444;-1.9569;2.009
12.713000;0.4175;0.2332;-1.8540;1.915
12.718000;0.3678;0.2144;-1.7991;1.849
12.722000;0.3418;0.1901;-1.6989;1.743
12.728000;0.2846;0.1626;-1.5774;1.611
12.732000;0.2226;0.1962;-1.4871;1.516
12.737000;0.2054;0.2050;-1.4616;1.490
12.742000;0.1372;0.2006;-1.4337;1.454
12.747000;0.0866;0.2196;-1.3845;1.404
12.752000;0.0294;0.2215;-1.3663;1.384
12.757000;0.0080;0.2496;-1.4079;1.430
12.798000;0.0242;0.2776;-1.4327;1.460
12.799000;0.0109;0.3110;-1.4623;1.495
12.799000;0.0204;0.3427;-1.4941;1.533
12.799000;0.0696;0.3418;-1.5378;1.577
12.800000;0.0936;0.3560;-1.5814;1.624
12.800000;0.1093;0.3929;-1.6273;1.678
12.800000;0.1435;0.4119;-1.6253;1.683
12.800000;0.1490;0.4082;-1.5564;1.616
12.801000;0.1785;0.4317;-1.4278;1.502
12.806000;0.1988;0.4393;-1.3232;1.408
12.811000;0.1697;0.4471;-1.2020;1.294
12.816000;0.1919;0.4524;-1.0810;1.187
12.821000;0.1697;0.4430;-0.9984;1.105
12.825000;0.1227;0.4334;-0.9088;1.014
12.831000;0.1177;0.4427;-0.8145;0.934
12.836000;0.1567;0.4492;-0.7490;0.887
12.840000;0.1581;0.4099;-0.6669;0.799
12.850000;0.1839;0.3923;-0.6160;0.753
12.851000;0.2122;0.3605;-0.5555;0.695
12.855000;0.2209;0.3456;-0.5095;0.654
12.860000;0.2198;0.3169;-0.4253;0.574
12.922000;0.2041;0.3053;-0.3435;0.503
12.923000;0.1638;0.3322;-0.2403;0.442
12.924000;0.1324;0.3596;-0.1516;0.412
12.924000;0.1168;0.3846;-0.0893;0.412
12.924000;0.1293;0.3977;-0.0246;0.419
12.924000;0.0649;0.4323;-0.0508;0.440
12.925000;0.0934;0.4692;-0.0005;0.478
12.925000;0.1197;0.4821;0.0066;0.497
12.925000;0.1604;0.4879;0.0545;0.516
12.925000;0.2012;0.4866;0.0592;0.530
12.926000;0.2253;0.4593;0.0520;0.514
12.926000;0.2209;0.4372;0.0854;0.497
12.926000;0.1977;0.3535;0.1690;0.439
12.929000;0.2418;0.2897;0.3171;0.493
12.933000;0.2956;0.2599;0.4889;0.628
12.938000;0.2824;0.2112;0.7273;0.808
12.943000;0.3406;0.1217;0.9058;0.975
12.952000;0.3601;0.0464;1.1629;1.218
12.953000;0.2926;-0.0201;1.3909;1.421
12.958000;0.2453;-0.0731;1.5302;1.551
13.009000;0.2780;-0.0770;1.7386;1.762
13.010000;0.3401;-0.0247;1.8966;1.927
13.011000;0.4121;0.0738;1.9396;1.984
13.011000;0.5102;0.2136;1.8678;1.948
13.012000;0.5555;0.2949;1.6909;1.804
13.012000;0.4956;0.3801;1.4640;1.592
13.013000;0.3622;0.4342;1.3881;1.499
13.013000;0.1878;0.4770;1.1569;1.265
13.013000;0.0703;0.4281;0.9787;1.071
13.013000;0.0331;0.3557;0.8679;0.939
13.014000;0.0141;0.2486;0.8960;0.930
13.017000;-0.0756;0.2361;1.0294;1.059
13.022000;-0.1134;0.2029;1.1390;1.163
13.027000;-0.1371;0.1819;1.3181;1.338
13.031000;-0.1638;0.1364;1.5259;1.541
13.036000;-0.1254;0.0584;1.7264;1.732
13.041000;-0.0994;0.0158;1.9171;1.920
13.047000;-0.0344;-0.0688;2.0287;2.030
13.053000;0.0115;-0.1895;2.0826;2.091
13.055000;0.0110;-0.3110;2.0788;2.102
13.061000;0.0226;-0.4480;2.0458;2.094
13.109000;0.0353;-0.5651;1.9933;2.072
13.110000;-0.0149;-0.6384;1.9187;2.022
13.111000;-0.0416;-0.6610;1.9201;2.031
13.111000;-0.1196;-0.7117;1.8278;1.965
13.111000;-0.2353;-0.7086;1.5942;1.760
13.112000;-0.3955;-0.8368;1.6882;1.925
13.112000;-0.5345;-0.9088;1.3902;1.745
13.112000;-0.6599;-0.9804;1.5324;1.935
13.113000;-0.7425;-1.0010;1.7536;2.151
13.113000;-0.7799;-0.9226;1.9628;2.305
13.115000;-0.8310;-0.8103;2.0382;2.345
13.119000;-0.8355;-0.7070;1.9703;2.254
13.124000;-0.8994;-0.6152;1.8023;2.106
13.135000;-0.9274;-0.5150;1.5989;1.919
13.136000;-0.9311;-0.4256;1.2788;1.638
13.139000;-0.9237;-0.2609;0.9854;1.376
13.144000;-0.8604;-0.1549;0.7067;1.124
13.200000;-0.8111;-0.0050;0.4572;0.931
13.201000;-0.7651;0.0954;0.2200;0.802
13.201000;-0.7931;0.0697;-0.0457;0.798
13.202000;-0.8083;0.0404;-0.2560;0.849
13.202000;-0.8165;-0.0473;-0.3585;0.893
13.202000;-0.7910;-0.0812;-0.3389;0.864
13.202000;-0.7696;-0.0998;-0.2406;0.812
13.203000;-0.7525;-0.1276;-0.0588;0.765
13.203000;-0.6950;-0.1986;0.0296;0.723
13.203000;-0.6553;-0.2986;0.0868;0.725
13.203000;-0.5432;-0.4036;0.0603;0.679
13.204000;-0.4478;-0.5041;0.0291;0.675
13.207000;-0.4344;-0.5688;-0.0308;0.716
13.213000;-0.3790;-0.6049;-0.0188;0.714
13.218000;-0.2271;-0.6501;-0.0690;0.692
13.222000;-0.1421;-0.6783;-0.1622;0.712
13.228000;-0.0790;-0.7372;-0.2552;0.784
13.233000;-0.0214;-0.7432;-0.3816;0.836
13.238000;0.1020;-0.7872;-0.5150;0.946
13.242000;0.1933;-0.7639;-0.6434;1.017
13.250000;0.2243;-0.7237;-0.8314;1.125
13.252000;0.2675;-0.6763;-0.9833;1.223
13.256000;0.2804;-0.5787;-1.1684;1.334
13.262000;0.2708;-0.4740;-1.3246;1.433
13.313000;0.2780;-0.3889;-1.5021;1.576
13.314000;0.2042;-0.3112;-1.6483;1.690
13.315000;0.1290;-0.2144;-1.7441;1.762
13.315000;0.0836;-0.1725;-1.7896;1.800
13.315000;0.1300;-0.1114;-1.8040;1.812
13.315000;0.1818;-0.0909;-1.8470;1.858
13.316000;0.2122;-0.0990;-1.8828;1.897
13.316000;0.2235;-0.0805;-1.9496;1.964
13.316000;0.2677;-0.1093;-2.0020;2.023
13.317000;0.2899;-0.0706;-2.0543;2.076
13.317000;0.2733;-0.0646;-2.0993;2.118
13.320000;0.2896;-0.0291;-2.1299;2.150
13.325000;0.2549;0.0242;-2.1628;2.178
13.329000;0.2455;0.0905;-2.1837;2.199
13.335000;0.1996;0.1506;-2.2284;2.242
13.340000;0.1601;0.2213;-2.2515;2.268
13.346000;0.1372;0.3051;-2.2770;2.301
13.350000;0.1028;0.3850;-2.2426;2.278
13.355000;-0.0002;0.4465;-2.2418;2.286
13.360000;-0.1018;0.5253;-2.1955;2.260
13.365000;-0.2064;0.6143;-2.1159;2.213
13.369000;-0.3183;0.6796;-1.9695;2.108
13.374000;-0.4372;0.7544;-1.8520;2.047
13.420000;-0.5915;0.7982;-1.6966;1.966
13.421000;-0.7645;0.8464;-1.5581;1.931
13.421000;-0.8821;0.8846;-1.3745;1.857
13.421000;-0.9447;0.9223;-1.2510;1.819
13.421000;-0.9480;0.9046;-1.1635;1.752
13.422000;-1.0236;0.8701;-1.0881;1.729
13.422000;-1.0837;0.7929;-1.0176;1.685
13.422000;-1.1116;0.7186;-0.9138;1.608
13.422000;-1.1624;0.6904;-0.7121;1.528
13.423000;-1.1501;0.7125;-0.4438;1.424
13.427000;-1.1350;0.6933;-0.2379;1.351
13.433000;-1.1032;0.6712;-0.0681;1.293
13.438000;-1.0985;0.6100;0.0274;1.257
13.442000;-1.0421;0.5507;0.0750;1.181
13.449000;-1.0045;0.4885;0.0844;1.120
13.454000;-0.9331;0.4405;0.0747;1.035
13.457000;-0.8523;0.4216;0.0722;0.954
13.493000;-0.7502;0.3719;0.0292;0.838
13.493000;-0.6600;0.3490;0.0269;0.747
13.494000;-0.5574;0.3004;0.0008;0.633
13.494000;-0.4448;0.2503;-0.0467;0.512
13.494000;-0.3457;0.1935;-0.0846;0.405
13.494000;-0.2887;0.1588;-0.0387;0.332
13.495000;-0.2706;0.1293;-0.0072;0.300
13.501000;-0.1928;0.0925;0.0721;0.226
13.501000;-0.0983;0.0913;0.1608;0.209
13.507000;-0.0130;0.0842;0.2208;0.237
13.512000;0.0556;0.0950;0.2352;0.260
13.516000;0.1081;0.0824;0.1922;0.235
13.521000;0.1398;0.1017;0.1134;0.207
13.526000;0.1818;0.1791;0.0560;0.261
13.531000;0.2530;0.2289;-0.0514;0.345
13.536000;0.3273;0.3063;-0.1206;0.464
13.541000;0.3925;0.3757;-0.2159;0.585
13.546000;0.4439;0.4134;-0.2897;0.672
13.552000;0.5101;0.4509;-0.3587;0.770
13.555000;0.4911;0.4764;-0.4108;0.798
13.560000;0.5255;0.4996;-0.3888;0.823
13.616000;0.4892;0.5111;-0.3454;0.787
13.616000;0.4543;0.4992;-0.2423;0.717
13.617000;0.3899;0.4568;-0.1250;0.613
13.617000;0.3152;0.3931;0.0782;0.510
13.617000;0.2566;0.3319;0.2929;0.512
13.617000;0.1900;0.2160;0.5552;0.625
13.618000;0.1318;0.1501;0.7788;0.804
13.618000;0.0749;0.0457;0.9472;0.951
13.618000;0.0115;-0.0735;1.0628;1.065
13.619000;-0.0678;-0.1643;1.1997;1.213
13.619000;-0.1396;-0.2648;1.4464;1.477
13.619000;-0.1706;-0.3538;1.6832;1.728
13.624000;-0.1065;-0.3933;1.9986;2.040
13.629000;-0.0695;-0.4175;2.2491;2.289
13.634000;-0.0148;-0.4194;2.4275;2.464
13.639000;0.0670;-0.3972;2.5317;2.564
13.643000;0.1400;-0.3177;2.4780;2.502
13.650000;0.1755;-0.2073;2.1902;2.207
13.655000;0.2147;-0.1370;1.8191;1.837
13.658000;0.2028;-0.1106;1.4055;1.424
13.714000;0.1473;-0.1170;1.0737;1.090
13.715000;0.1009;-0.0932;0.8619;0.873
13.715000;0.1067;-0.0428;0.8081;0.816
13.715000;0.0597;0.0436;0.8189;0.822
13.716000;0.0220;0.1110;0.8752;0.883
13.716000;0.0014;0.1211;0.9434;0.951
13.716000;-0.0520;0.0428;1.0091;1.011
13.716000;-0.1492;-0.0902;1.1607;1.174
13.717000;-0.2129;-0.2830;1.4269;1.470
13.717000;-0.2975;-0.4812;1.8002;1.887
13.717000;-0.3718;-0.6688;2.1706;2.302
13.718000;-0.4331;-0.9017;2.5406;2.730
13.722000;-0.4246;-1.1042;2.8479;3.084
13.727000;-0.3896;-1.3800;3.0736;3.392
13.732000;-0.3220;-1.6077;3.1485;3.550
13.737000;-0.2629;-1.8209;3.1659;3.662
13.742000;-0.1031;-1.9485;3.0638;3.632
13.750000;-0.0050;-1.9784;2.9237;3.530
13.752000;0.0883;-1.9373;2.7790;3.389
13.756000;0.2078;-1.7635;2.2139;2.838
13.761000;0.2548;-1.5972;1.9364;2.523
13.805000;0.2836;-1.4092;1.4752;2.060
13.805000;0.2527;-1.1817;0.8474;1.476
13.806000;0.1810;-0.9329;0.3399;1.009
13.806000;0.0680;-0.6230;-0.0187;0.627
13.806000;-0.0718;-0.3378;-0.3602;0.499
13.806000;-0.2052;-0.0504;-0.6846;0.716
13.807000;-0.3270;0.2278;-0.9991;1.076
13.807000;-0.4751;0.4062;-1.2654;1.411
13.807000;-0.6250;0.5115;-1.4908;1.696
13.810000;-0.7377;0.5847;-1.5774;1.837
13.815000;-0.8594;0.6405;-1.6113;1.935
13.820000;-0.9082;0.5831;-1.4612;1.817
13.825000;-0.9455;0.5029;-1.2300;1.631
13.832000;-0.9375;0.3442;-0.8938;1.340
13.835000;-0.8652;0.1090;-0.5461;1.029
13.840000;-0.6959;-0.1914;-0.1390;0.735
13.845000;-0.5306;-0.4859;0.1338;0.732
13.850000;-0.3822;-0.8085;0.3227;0.951
13.856000;-0.1315;-1.0757;0.4707;1.182
13.860000;0.0821;-1.2831;0.6616;1.446
13.869000;0.2077;-1.4478;0.7925;1.664
13.875000;0.3881;-1.6130;0.8850;1.880
13.876000;0.5465;-1.7383;0.9558;2.058
13.878000;0.7114;-1.8151;0.9834;2.184
13.938000;0.7990;-1.8436;0.9393;2.218
13.939000;0.8906;-1.7313;0.7062;2.071
13.940000;0.9054;-1.5929;0.3778;1.871
13.940000;0.8491;-1.4333;0.0163;1.666
13.940000;0.7148;-1.1990;-0.3089;1.430
13.940000;0.6325;-0.9517;-0.6147;1.298
13.941000;0.5520;-0.6889;-0.8603;1.233
13.941000;0.5171;-0.4774;-1.0650;1.277
13.941000;0.4394;-0.2959;-1.2455;1.354
13.942000;0.3934;-0.1298;-1.4115;1.471
13.942000;0.3480;-0.0198;-1.5677;1.606
13.942000;0.3535;0.0801;-1.7451;1.782
13.943000;0.3528;0.1772;-1.9032;1.944
13.949000;0.3842;0.2093;-2.0181;2.065
13.953000;0.4002;0.2750;-2.1041;2.159
13.957000;0.3982;0.3194;-2.1804;2.239
13.962000;0.4022;0.3475;-2.1945;2.258
13.967000;0.3857;0.3502;-2.2014;2.262
13.972000;0.3605;0.3490;-2.1222;2.181
13.977000;0.3410;0.3298;-2.0550;2.109
14.024000;0.3388;0.2926;-1.9473;1.998
14.025000;0.3180;0.2446;-1.7895;1.834
14.025000;0.3074;0.1810;-1.6533;1.691
14.025000;0.2901;0.1089;-1.5102;1.542
14.025000;0.2470;0.0354;-1.3194;1.343
14.026000;0.1783;-0.0371;-1.1288;1.143
14.026000;0.1676;-0.0707;-0.8955;0.914
14.026000;0.1311;-0.1064;-0.7102;0.730
14.026000;0.0853;-0.1470;-0.5490;0.575
14.027000;0.0757;-0.2092;-0.4454;0.498
14.036000;0.0279;-0.2380;-0.3372;0.414
14.037000;-0.0150;-0.2406;-0.2697;0.362
14.041000;-0.0487;-0.2480;-0.1760;0.308
14.045000;-0.0996;-0.2173;-0.1230;0.269
14.051000;-0.0866;-0.1772;-0.0797;0.213
14.056000;-0.0672;-0.1516;-0.0507;0.173
14.060000;-0.0655;-0.1069;-0.0409;0.132
14.099000;-0.0313;-0.0937;-0.1315;0.165
14.100000;0.0593;-0.0758;-0.2029;0.225
14.100000;0.0964;-0.0365;-0.2933;0.311
14.100000;0.1498;0.0411;-0.3764;0.407
14.100000;0.1503;0.1163;-0.3948;0.438
14.100000;0.1146;0.2036;-0.3965;0.460
14.101000;0.1192;0.2359;-0.3719;0.456
14.101000;0.1593;0.2992;-0.3831;0.512
14.104000;0.2255;0.3670;-0.3848;0.578
14.109000;0.2964;0.4129;-0.4223;0.661
14.114000;0.3506;0.4512;-0.4669;0.738
14.119000;0.3855;0.5246;-0.5283;0.838
14.123000;0.3963;0.6167;-0.6469;0.978
14.129000;0.4374;0.6655;-0.7438;1.090
14.133000;0.4734;0.7362;-0.7976;1.184
14.139000;0.4465;0.7882;-0.8512;1.243
14.143000;0.4528;0.8290;-0.8474;1.269
14.153000;0.4467;0.8396;-0.7576;1.216
14.154000;0.4552;0.8649;-0.6223;1.159
14.158000;0.4661;0.9071;-0.4514;1.115
14.162000;0.4773;0.9300;-0.3309;1.096
14.222000;0.4748;0.9475;-0.2130;1.081
14.222000;0.4999;0.9209;-0.1143;1.054
14.223000;0.5217;0.9147;-0.0709;1.055
14.223000;0.5285;0.8975;-0.0204;1.042
14.223000;0.5251;0.8626;0.0180;1.010
14.223000;0.5284;0.8579;0.0611;1.009
14.224000;0.5240;0.8405;0.0969;0.995
14.224000;0.4947;0.8417;0.2210;1.001
14.225000;0.4497;0.8282;0.2851;0.985
14.225000;0.3819;0.7905;0.3706;0.953
14.225000;0.3195;0.7767;0.4752;0.965
14.225000;0.2502;0.7581;0.5868;0.991
14.227000;0.1671;0.6704;0.7030;0.986
14.233000;0.0844;0.6544;0.8382;1.067
14.237000;-0.0386;0.6169;0.9900;1.167
14.242000;-0.0633;0.5719;1.0770;1.221
14.247000;-0.1854;0.5409;1.1734;1.305
14.255000;-0.2879;0.5070;1.2960;1.421
14.258000;-0.3875;0.4512;1.4209;1.540
14.261000;-0.4585;0.4116;1.5144;1.635
14.319000;-0.5152;0.3642;1.5864;1.707
14.320000;-0.5102;0.3352;1.6009;1.713
14.320000;-0.5058;0.3128;1.5795;1.688
14.320000;-0.4521;0.2802;1.5868;1.674
14.320000;-0.3635;0.2784;1.6013;1.665
14.321000;-0.2093;0.3360;1.6301;1.677
14.321000;-0.0922;0.4358;1.5943;1.655
14.321000;-0.0074;0.4941;1.4439;1.526
14.322000;0.0522;0.5637;1.2195;1.345
14.322000;0.0800;0.5902;0.9477;1.119
14.322000;0.0530;0.5574;0.6930;0.891
14.323000;-0.0616;0.4588;0.5174;0.694
14.325000;-0.1606;0.3859;0.4688;0.628
14.331000;-0.2410;0.2864;0.5446;0.661
14.335000;-0.3219;0.2058;0.7231;0.818
14.340000;-0.3797;0.0884;0.9969;1.070
14.345000;-0.4629;-0.0397;1.3063;1.387
14.353000;-0.4573;-0.1409;1.5604;1.632
14.354000;-0.4591;-0.2443;1.7305;1.807
14.359000;-0.4090;-0.3576;1.8765;1.954
14.364000;-0.3693;-0.4642;1.8837;1.975
14.411000;-0.2920;-0.5522;1.8359;1.939
14.412000;-0.2606;-0.6266;1.7547;1.881
14.412000;-0.2749;-0.7112;1.5828;1.757
14.412000;-0.3085;-0.7938;1.3369;1.585
14.413000;-0.4109;-0.8619;1.1775;1.516
14.413000;-0.4887;-0.9724;1.0899;1.540
14.413000;-0.5947;-1.0961;1.1172;1.674
14.413000;-0.6631;-1.1924;1.1875;1.809
14.414000;-0.7472;-1.2692;1.3031;1.967
14.414000;-0.7928;-1.3244;1.3469;2.049
14.419000;-0.7935;-1.3395;1.1660;1.945
14.423000;-0.7781;-1.2358;1.0641;1.807
14.429000;-0.7410;-1.2049;1.0054;1.735
14.433000;-0.6962;-1.0508;0.6958;1.440
14.438000;-0.6051;-0.9172;0.5085;1.211
14.443000;-0.4604;-0.8062;0.2305;0.957
14.447000;-0.3713;-0.7273;-0.0423;0.818
14.454000;-0.3370;-0.6492;-0.2622;0.777
14.457000;-0.3399;-0.5811;-0.4556;0.813
14.462000;-0.3794;-0.4944;-0.4982;0.798
14.469000;-0.3909;-0.4179;-0.5694;0.807
14.472000;-0.3382;-0.3562;-0.6596;0.822
14.476000;-0.3002;-0.2784;-0.7809;0.882
14.517000;-0.2652;-0.3036;-0.9402;1.023
14.517000;-0.1923;-0.3636;-1.0921;1.167
14.518000;-0.2039;-0.4797;-1.1961;1.305
14.518000;-0.1473;-0.5414;-1.1469;1.277
14.518000;-0.1476;-0.5745;-1.0691;1.223
14.518000;-0.1407;-0.5887;-0.9483;1.125
14.518000;-0.1894;-0.5983;-0.8946;1.093
14.519000;-0.3822;-0.6345;-0.7189;1.032
14.521000;-0.4796;-0.6399;-0.5530;0.972
14.526000;-1.0412;-0.8965;-0.3132;1.409
14.532000;-1.2922;-0.9910;-0.1119;1.632
14.536000;-1.3094;-0.9027;0.1395;1.596
14.541000;-1.2909;-0.8329;0.4407;1.598
14.546000;-1.3513;-0.8590;0.6627;1.733
14.553000;-1.3665;-0.9744;0.8223;1.869
14.555000;-1.3244;-1.1220;0.8860;1.949
14.560000;-1.1844;-1.1993;0.9330;1.927
14.565000;-0.9924;-1.2331;0.9320;1.837
14.597000;-0.7201;-1.2332;0.9476;1.714
14.598000;-0.4973;-1.2334;0.8341;1.570
14.598000;-0.2841;-1.2004;0.5582;1.354
14.598000;-0.1237;-1.1269;0.1894;1.149
14.599000;-0.0091;-1.0365;-0.2602;1.069
14.599000;0.0506;-0.8974;-0.6878;1.132
14.599000;0.0582;-0.6634;-1.0599;1.252
14.605000;0.0927;-0.3869;-1.3909;1.447
14.608000;0.1119;-0.1849;-1.6162;1.631
14.614000;0.0708;0.0264;-1.8579;1.859
14.620000;0.0728;0.2016;-2.0921;2.103
14.624000;0.0437;0.3383;-2.3428;2.367
14.629000;-0.0108;0.4989;-2.5500;2.598
14.634000;-0.0996;0.6192;-2.7260;2.797
14.640000;-0.2055;0.7400;-2.8395;2.942
14.644000;-0.2754;0.8399;-2.8478;2.982
14.648000;-0.2998;0.9645;-2.8155;2.991
14.656000;-0.2834;1.0469;-2.8024;3.005
14.658000;-0.2770;1.0179;-2.7463;2.942
14.664000;-0.2857;1.0404;-2.6568;2.868
14.671000;-0.2290;0.9950;-2.5340;2.732
14.673000;-0.1621;0.9178;-2.4233;2.596
14.677000;-0.1386;0.8711;-2.3007;2.464
14.682000;-0.0702;0.8001;-2.1328;2.279
14.737000;-0.0218;0.7164;-1.9770;2.103
14.739000;-0.0152;0.6588;-1.8118;1.928
14.739000;0.0097;0.5289;-1.6348;1.718
14.739000;0.0528;0.4820;-1.4029;1.484
14.739000;0.0687;0.4149;-1.2406;1.310
14.740000;0.0697;0.3921;-1.0713;1.143
14.740000;0.0995;0.3388;-0.8710;0.940
14.740000;0.1247;0.2669;-0.7284;0.786
14.740000;0.1099;0.2286;-0.5739;0.627
14.740000;0.0935;0.1833;-0.4245;0.472
14.741000;0.0522;0.1185;-0.2681;0.298
14.741000;0.0649;0.0918;-0.1023;0.152
14.746000;0.0785;0.0905;0.0704;0.139
14.751000;0.0310;0.0671;0.1544;0.171
14.758000;0.0368;0.0904;0.2382;0.257
14.761000;-0.0096;0.1126;0.3458;0.364
14.766000;-0.0719;0.1387;0.4245;0.452
14.772000;-0.0624;0.1277;0.4625;0.484
14.776000;-0.1392;0.0967;0.4622;0.492
14.780000;-0.1207;0.1006;0.5001;0.524
14.828000;-0.0448;0.1395;0.4733;0.495
14.829000;-0.0871;0.1199;0.4801;0.502
14.829000;-0.0799;0.1615;0.4581;0.492
14.829000;-0.0854;0.2643;0.3956;0.483
14.830000;-0.1488;0.3708;0.2948;0.497
14.830000;-0.2291;0.4357;0.2372;0.546
14.830000;-0.2926;0.4904;0.1963;0.604
14.830000;-0.3631;0.5445;0.2176;0.690
14.831000;-0.3758;0.5980;0.2245;0.741
14.831000;-0.4052;0.6791;0.1979;0.815
14.836000;-0.4366;0.7114;0.2047;0.859
14.839000;-0.4744;0.7522;0.2019;0.912
14.844000;-0.5263;0.7942;0.2278;0.980
14.848000;-0.6256;0.8710;0.2224;1.095
14.855000;-0.6361;0.9517;0.2721;1.177
14.859000;-0.6487;1.0240;0.2929;1.247
14.864000;-0.5968;1.0714;0.2802;1.258
14.913000;-0.5642;1.1296;0.2149;1.281
14.914000;-0.5294;1.1131;0.1737;1.245
14.914000;-0.4900;1.1465;0.1348;1.254
14.915000;-0.4243;1.1749;0.1151;1.254
14.915000;-0.4043;1.1862;0.0955;1.257
14.915000;-0.3987;1.2070;0.0759;1.273
14.915000;-0.4528;1.2185;0.1519;1.309
14.915000;-0.4406;1.2352;0.1276;1.318
14.915000;-0.4626;1.1712;0.1009;1.263
14.916000;-0.5134;1.1343;0.1388;1.253
14.920000;-0.5922;1.1127;0.2555;1.286
14.923000;-0.6341;1.0943;0.3386;1.309
14.928000;-0.6417;1.0262;0.4742;1.300
14.933000;-0.7294;0.8870;0.6646;1.327
14.938000;-0.8563;0.7481;0.8332;1.410
14.942000;-0.8671;0.5903;1.0494;1.484
14.947000;-0.8603;0.4489;1.2939;1.617
14.954000;-0.8559;0.2739;1.4880;1.738
14.957000;-0.7996;0.1438;1.5766;1.774
14.961000;-0.6588;0.0036;1.6461;1.773
14.966000;-0.4627;-0.0990;1.6821;1.747
14.996000;-0.2433;-0.1158;1.6846;1.706
14.996000;-0.0367;-0.0735;1.5415;1.544
14.997000;0.2121;0.0663;1.3818;1.400
14.997000;0.3630;0.1768;1.1627;1.231
14.997000;0.4503;0.2371;0.8412;0.983
14.997000;0.4417;0.2667;0.5751;0.773
15.003000;0.2931;0.2257;0.4837;0.609
15.006000;0.2013;0.2047;0.4474;0.532
15.011000;0.1600;0.2419;0.4924;0.571
15.016000;0.1166;0.2865;0.4990;0.587
15.021000;0.0449;0.3103;0.5103;0.599
15.026000;-0.0171;0.3369;0.5692;0.662
15.031000;-0.0412;0.3285;0.5946;0.681
15.036000;-0.0351;0.3355;0.6200;0.706
15.041000;-0.0490;0.2243;0.6261;0.667
15.046000;-0.0043;0.0909;0.6824;0.688
15.058000;-0.0038;-0.0884;0.7434;0.749
15.059000;-0.0597;-0.2753;0.8712;0.916
15.060000;-0.1454;-0.4676;1.0610;1.169
15.065000;-0.2873;-0.6202;1.3247;1.491
15.123000;-0.3854;-0.7743;1.5784;1.800
15.124000;-0.4849;-0.9062;1.8319;2.101
15.124000;-0.5454;-1.0860;2.0802;2.409
15.125000;-0.5693;-1.1852;2.2924;2.643
15.125000;-0.5114;-1.3671;2.5785;2.963
15.125000;-0.4582;-1.4386;2.4794;2.903
15.126000;-0.3986;-1.4792;2.6075;3.024
15.126000;-0.2758;-1.5370;2.5395;2.981
15.127000;-0.1524;-1.5308;2.3521;2.811
15.127000;-0.0144;-1.4273;2.0240;2.477
15.128000;0.0969;-1.3265;1.6222;2.098
15.128000;0.2196;-1.1583;1.1732;1.663
15.128000;0.2672;-0.9721;0.6985;1.226
15.133000;0.3044;-0.7529;0.2411;0.847
15.139000;0.2573;-0.5261;-0.1463;0.604
15.144000;0.2101;-0.3206;-0.5308;0.655
15.149000;0.1538;-0.0782;-0.8526;0.870
15.158000;0.0938;0.1412;-1.1621;1.174
15.159000;0.0095;0.2690;-1.4544;1.479
15.164000;-0.0697;0.3697;-1.6675;1.709
15.229000;-0.1714;0.4557;-1.7179;1.786
15.231000;-0.2235;0.4980;-1.7825;1.864
15.232000;-0.2158;0.5613;-1.8017;1.899
15.233000;-0.2198;0.5520;-1.8089;1.904
15.233000;-0.1922;0.4418;-1.7255;1.791
15.233000;-0.0853;0.2788;-1.6087;1.635
15.234000;0.0235;0.0890;-1.4180;1.421
15.234000;0.1886;-0.1014;-1.2180;1.237
15.235000;0.2802;-0.2496;-1.0350;1.101
15.235000;0.3286;-0.4323;-0.8379;0.998
15.235000;0.3835;-0.6208;-0.6840;1.000
15.235000;0.4207;-0.7412;-0.5614;1.021
15.236000;0.4734;-0.8202;-0.4676;1.056
15.236000;0.4961;-0.8747;-0.3332;1.059
15.238000;0.4839;-0.9194;-0.2133;1.061
15.241000;0.4803;-0.9449;-0.0888;1.064
15.246000;0.4660;-0.9519;-0.0242;1.060
15.251000;0.4987;-0.9287;0.0117;1.054
15.258000;0.4901;-0.9142;-0.0217;1.037
15.260000;0.4883;-0.8844;-0.1220;1.018
15.266000;0.4675;-0.8084;-0.2030;0.956
15.319000;0.4253;-0.7335;-0.3485;0.917
15.319000;0.3957;-0.6050;-0.4437;0.848
15.320000;0.3857;-0.4922;-0.5841;0.856
15.320000;0.3378;-0.3827;-0.6957;0.863
15.320000;0.3401;-0.2666;-0.8502;0.954
15.320000;0.3491;-0.2180;-1.0427;1.121
15.320000;0.2932;-0.1621;-1.1345;1.183
15.321000;0.2534;-0.0817;-1.2000;1.229
15.321000;0.2555;-0.0220;-1.2009;1.228
15.321000;0.2731;0.0549;-1.1826;1.215
15.322000;0.2511;0.0962;-1.1595;1.190
15.325000;0.2491;0.1810;-1.2105;1.249
15.329000;0.2628;0.2227;-1.2495;1.296
15.334000;0.2660;0.2739;-1.2908;1.346
15.339000;0.3023;0.3347;-1.3894;1.461
15.344000;0.3739;0.3761;-1.4831;1.575
15.349000;0.4198;0.4389;-1.5647;1.678
15.355000;0.4448;0.4563;-1.6224;1.743
15.358000;0.4137;0.4500;-1.6226;1.734
15.362000;0.3606;0.4941;-1.5463;1.663
15.368000;0.3261;0.5170;-1.4654;1.588
15.405000;0.3150;0.5423;-1.3321;1.472
15.406000;0.2433;0.5862;-1.2228;1.378
15.406000;0.1588;0.5940;-1.1520;1.306
15.406000;0.0804;0.6014;-1.0836;1.242
15.407000;-0.0067;0.5944;-1.0656;1.220
15.407000;-0.0861;0.6163;-1.0690;1.237
15.407000;-0.1439;0.5815;-1.0629;1.220
15.407000;-0.2116;0.5931;-1.0664;1.238
15.413000;-0.2200;0.5462;-1.0244;1.182
15.417000;-0.2459;0.5108;-0.9776;1.130
15.423000;-0.3132;0.5033;-0.8257;1.016
15.427000;-0.3313;0.4352;-0.5902;0.805
15.432000;-0.3338;0.4163;-0.3814;0.656
15.437000;-0.3186;0.3722;-0.2085;0.532
15.441000;-0.2780;0.2952;-0.0454;0.408
15.447000;-0.2267;0.2616;0.0578;0.351
15.451000;-0.1599;0.2279;0.0941;0.294
15.457000;-0.1108;0.1919;0.1374;0.261
15.461000;-0.0390;0.1657;0.2382;0.293
15.466000;0.0006;0.1561;0.3125;0.349
15.508000;0.0316;0.1559;0.3797;0.412
15.509000;0.0923;0.1765;0.4563;0.498
15.509000;0.1396;0.2177;0.4827;0.548
15.509000;0.1785;0.2314;0.4159;0.508
15.509000;0.1592;0.2699;0.3875;0.498
15.510000;0.2113;0.3333;0.3064;0.500
15.510000;0.2178;0.3783;0.2398;0.498
15.510000;0.2577;0.4815;0.1087;0.557
15.510000;0.3217;0.5711;-0.0103;0.656
