time;ax;ay;az;aT
0.002000;0.1935;-0.0062;0.7213;0.747
0.003000;-0.0204;0.1343;0.3055;0.334
0.008000;-0.1328;0.1319;-0.0994;0.212
0.011000;-0.1424;0.0388;-0.4106;0.436
0.016000;-0.0865;-0.0578;-0.6523;0.661
0.021000;-0.0052;-0.2002;-0.7655;0.791
0.026000;0.0470;-0.2757;-0.7791;0.828
0.030000;0.0556;-0.3016;-0.6984;0.763
0.035000;0.0129;-0.2594;-0.5329;0.593
0.041000;-0.0176;-0.1740;-0.2805;0.331
0.046000;-0.0490;-0.0725;-0.0579;0.105
0.050000;-0.0229;0.0103;0.1687;0.171
0.054000;0.0287;0.0448;0.3516;0.356
0.061000;0.0904;0.0759;0.5367;0.549
0.064000;0.1807;0.0812;0.6786;0.707
0.070000;0.2419;0.0983;0.7539;0.798
0.074000;0.2767;0.0957;0.7390;0.795
0.079000;0.2781;0.1020;0.6867;0.748
0.084000;0.2776;0.1293;0.5995;0.673
0.090000;0.2326;0.1468;0.4248;0.506
0.094000;0.1842;0.1813;0.2249;0.343
0.099000;0.1494;0.1621;0.0450;0.225
0.103000;0.0834;0.1924;-0.1580;0.263
0.110000;0.0748;0.1845;-0.3175;0.375
0.113000;0.0594;0.1656;-0.4886;0.519
0.118000;0.0686;0.1696;-0.6166;0.643
0.125000;0.0623;0.1422;-0.6850;0.702
0.128000;0.1171;0.1051;-0.6988;0.716
0.133000;0.1113;0.0728;-0.6511;0.665
0.138000;0.1070;0.0643;-0.5516;0.566
0.142000;0.0921;0.0456;-0.4505;0.462
0.149000;0.1042;0.0619;-0.3404;0.361
0.153000;0.0907;0.0912;-0.1976;0.236
0.157000;0.1227;0.0612;-0.0434;0.144
0.163000;0.1304;0.0456;0.1200;0.183
0.167000;0.1304;-0.0084;0.3711;0.393
0.173000;0.1795;0.0226;0.1757;0.252
0.177000;0.1657;-0.0073;0.4463;0.476
0.185000;0.1629;-0.0337;0.4326;0.463
0.187000;0.1476;-0.0280;0.3667;0.396
0.193000;0.1054;-0.0477;0.3467;0.365
0.197000;0.0749;-0.0376;0.2793;0.292
0.202000;0.0367;-0.0263;0.2148;0.219
0.208000;0.0126;-0.0061;0.1220;0.123
0.212000;-0.0382;0.0042;0.0056;0.039
0.217000;-0.0554;0.0050;-0.0650;0.086
0.221000;-0.0557;-0.0060;-0.1236;0.136
0.232000;-0.0580;-0.0044;-0.1989;0.207
0.233000;-0.0575;-0.0044;-0.2359;0.243
0.236000;-0.0901;-0.0081;-0.2349;0.252
0.240000;-0.0745;0.0416;-0.2031;0.220
0.245000;-0.0659;0.0396;-0.1740;0.190
0.250000;-0.0620;0.0312;-0.0879;0.112
0.258000;-0.0649;0.0212;-0.0213;0.072
0.260000;-0.0608;0.0211;0.0641;0.091
0.265000;-0.0401;0.0188;0.1397;0.147
0.270000;-0.0268;-0.0098;0.1888;0.191
0.275000;-0.0066;0.0022;0.2474;0.247
0.280000;0.0063;-0.0007;0.2677;0.268
0.285000;0.0311;-0.0067;0.3240;0.326
0.291000;0.0390;-0.0065;0.3302;0.333
0.294000;0.0586;0.0051;0.3198;0.325
0.299000;0.0636;0.0180;0.2620;0.270
0.304000;0.0874;0.0420;0.2355;0.255
0.309000;0.1013;0.0390;0.1687;0.201
0.314000;0.1152;0.0691;0.1141;0.176
0.319000;0.1145;0.0586;0.0119;0.129
0.326000;0.0878;0.0364;-0.0495;0.107
0.329000;0.0689;0.0386;-0.0798;0.112
0.333000;0.0269;0.0510;-0.0839;0.102
0.339000;-0.0027;0.0712;-0.1287;0.147
0.343000;-0.0337;0.0803;-0.0901;0.125
0.348000;-0.0331;0.0447;-0.0757;0.094
0.353000;-0.0297;0.0575;-0.0494;0.081
0.358000;-0.0286;0.0468;-0.0114;0.056
0.363000;-0.0324;0.0365;0.0049;0.049
0.368000;-0.0150;0.0337;0.0617;0.072
0.373000;-0.0053;0.0358;0.1541;0.158
0.379000;-0.0080;0.0355;0.2343;0.237
0.383000;-0.0112;0.0275;0.3293;0.331
0.388000;-0.0004;0.0070;0.3737;0.374
0.393000;0.0027;0.0000;0.4299;0.430
0.398000;-0.0112;0.0038;0.4550;0.455
0.402000;-0.0084;0.0017;0.4375;0.438
0.408000;-0.0221;0.0058;0.3989;0.400
0.412000;-0.0257;0.0490;0.3183;0.323
0.417000;-0.0337;0.0457;0.2386;0.245
0.422000;-0.0366;0.0514;0.0790;0.101
0.427000;0.0035;0.1089;0.1391;0.177
0.432000;-0.0083;0.1089;-0.1834;0.213
0.436000;-0.0247;0.1160;-0.2160;0.246
0.443000;-0.0070;0.0715;-0.2650;0.275
0.447000;-0.0412;0.0755;-0.4159;0.425
0.451000;-0.0683;0.0379;-0.4401;0.447
0.460000;-0.0141;0.0636;-0.4622;0.467
0.461000;-0.0388;0.0212;-0.4105;0.413
0.466000;-0.0541;0.0109;-0.3234;0.328
0.471000;-0.0745;0.0132;-0.2175;0.230
0.476000;-0.0785;0.0253;-0.1382;0.161
0.481000;-0.0781;0.0256;-0.0425;0.092
0.486000;-0.0758;0.0255;0.0555;0.097
0.491000;-0.0625;0.0345;0.1032;0.125
0.495000;-0.0617;0.0454;0.1413;0.161
0.500000;-0.0301;0.0151;0.1103;0.115
0.505000;-0.0079;-0.0204;0.1583;0.160
0.510000;-0.0022;-0.0564;0.1776;0.186
0.515000;0.0107;-0.0834;0.1684;0.188
0.520000;-0.0053;-0.0798;0.1879;0.204
0.527000;-0.0286;-0.0338;0.1360;0.143
0.531000;-0.0687;-0.0171;0.0485;0.086
0.536000;-0.0966;0.0325;0.0115;0.103
0.550000;-0.1336;0.0437;-0.0803;0.162
0.551000;-0.1295;0.0764;-0.1313;0.200
0.551000;-0.1705;0.0470;-0.1321;0.221
0.554000;-0.1728;0.0538;-0.1640;0.244
0.560000;-0.1484;0.0657;-0.1959;0.254
0.564000;-0.1497;0.0015;-0.2421;0.285
0.569000;-0.1435;0.0070;-0.2524;0.290
0.574000;-0.1610;0.0080;-0.2509;0.298
0.579000;-0.1569;-0.0145;-0.2542;0.299
0.583000;-0.1672;-0.0319;-0.2242;0.281
0.588000;-0.2015;-0.0608;-0.2230;0.307
0.598000;-0.2146;-0.0633;-0.2003;0.300
0.598000;-0.2545;-0.0372;-0.1777;0.313
0.604000;-0.2615;-0.0208;-0.1479;0.301
0.608000;-0.2790;-0.0024;-0.1898;0.337
0.613000;-0.2830;0.0038;-0.1814;0.336
0.618000;-0.2665;-0.0092;-0.2039;0.336
0.625000;-0.2364;0.0231;-0.1835;0.300
0.631000;-0.1641;0.0125;-0.2300;0.283
0.633000;-0.1020;0.0165;-0.2311;0.253
0.638000;-0.0573;0.0231;-0.2346;0.243
0.643000;-0.0226;-0.0394;-0.1547;0.161
0.647000;0.0287;-0.0628;-0.1362;0.153
0.652000;0.0274;-0.0575;-0.0965;0.116
0.661000;0.0168;-0.1067;-0.0477;0.118
0.665000;0.0280;-0.0961;-0.0373;0.107
0.668000;0.0112;-0.1092;-0.0269;0.113
0.672000;0.0310;-0.1343;-0.0760;0.157
0.677000;0.0254;-0.1284;-0.0605;0.144
0.682000;0.0560;-0.1391;-0.0713;0.166
0.686000;0.0628;-0.1357;-0.0796;0.169
0.691000;0.0720;-0.1369;-0.0759;0.172
0.696000;0.1002;-0.1145;-0.0723;0.168
0.701000;0.1376;-0.1230;-0.0450;0.190
0.706000;0.1489;-0.1102;-0.0511;0.192
0.713000;0.1816;-0.1095;-0.0477;0.217
0.716000;0.2071;-0.0924;-0.0608;0.235
0.721000;0.2114;-0.1064;-0.0477;0.241
0.727000;0.2588;-0.0940;-0.1225;0.301
0.730000;0.2589;-0.1053;-0.1873;0.336
0.736000;0.2714;-0.1068;-0.2041;0.356
0.740000;0.2558;-0.1316;-0.2541;0.384
0.750000;0.2495;-0.1206;-0.2771;0.392
0.751000;0.2365;-0.1545;-0.2739;0.393
0.755000;0.2073;-0.1450;-0.2732;0.372
0.760000;0.1737;-0.1661;-0.2416;0.341
0.765000;0.1350;-0.1571;-0.2587;0.331
0.771000;0.1370;-0.1503;-0.2497;0.322
0.783000;0.1082;-0.1173;-0.2692;0.313
0.784000;0.1223;-0.0938;-0.2743;0.315
0.784000;0.1288;-0.0632;-0.2961;0.329
0.789000;0.1730;-0.0849;-0.3273;0.380
0.794000;0.1880;-0.0659;-0.3748;0.424
0.799000;0.2397;-0.0707;-0.4032;0.474
0.806000;0.2623;-0.0607;-0.4269;0.505
0.809000;0.2581;-0.0574;-0.4578;0.529
0.814000;0.2657;-0.0654;-0.4936;0.564
0.819000;0.2300;-0.0679;-0.4937;0.549
0.828000;0.1799;-0.0890;-0.4533;0.496
0.829000;0.1032;-0.1430;-0.3678;0.408
0.833000;0.0592;-0.1297;-0.5117;0.531
0.838000;-0.0382;-0.1617;-0.0991;0.193
0.843000;-0.0788;-0.1936;0.0238;0.210
0.848000;-0.0934;-0.1781;0.0057;0.201
0.853000;-0.1035;-0.1299;0.1048;0.196
0.859000;-0.0865;-0.1626;0.0791;0.200
0.864000;-0.0833;-0.1579;0.0516;0.186
0.867000;-0.0865;-0.1369;-0.0184;0.163
0.873000;-0.0625;-0.1305;-0.0949;0.173
0.878000;-0.0735;-0.1097;-0.1186;0.178
0.882000;-0.0603;-0.1080;-0.1730;0.213
0.887000;-0.0398;-0.0633;-0.1558;0.173
0.893000;-0.0483;-0.0304;-0.1744;0.184
0.899000;-0.0358;-0.0188;-0.1550;0.160
0.905000;-0.0287;0.0025;-0.1430;0.146
0.907000;-0.0716;-0.0021;-0.1050;0.127
0.912000;-0.0765;-0.0043;-0.0436;0.088
0.917000;-0.0791;-0.0064;0.0101;0.080
0.922000;-0.0677;-0.0205;0.0564;0.090
0.927000;-0.0921;-0.0158;0.1093;0.144
0.932000;-0.1043;0.0124;0.1311;0.168
0.936000;-0.1422;0.0425;0.1219;0.192
0.941000;-0.1539;0.0508;0.1519;0.222
0.946000;-0.1913;0.0252;0.1580;0.249
0.951000;-0.2139;0.0282;0.2119;0.302
0.955000;-0.2363;0.0234;0.2323;0.332
0.967000;-0.2562;0.0300;0.2458;0.356
0.967000;-0.2563;0.0337;0.2306;0.346
0.972000;-0.2463;0.0484;0.1894;0.314
0.977000;-0.2384;0.0697;0.1031;0.269
0.980000;-0.2661;0.0619;0.0194;0.274
0.985000;-0.2650;0.1065;-0.0688;0.294
0.990000;-0.2713;0.0961;-0.1115;0.309
0.995000;-0.2853;0.1433;-0.1470;0.351
1.000000;-0.2996;0.1239;-0.1706;0.366
1.005000;-0.3047;0.1456;-0.2110;0.398
1.010000;-0.3197;0.1345;-0.1846;0.393
1.015000;-0.3179;0.1072;-0.1989;0.390
1.019000;-0.3330;0.1020;-0.1919;0.398
1.024000;-0.3456;0.0929;-0.1516;0.389
1.029000;-0.3315;0.0844;-0.1187;0.362
1.035000;-0.3598;0.0837;-0.0885;0.380
1.039000;-0.3968;0.0593;-0.0965;0.413
1.046000;-0.4071;0.0498;-0.0425;0.412
1.052000;-0.4270;0.0524;0.0376;0.432
1.057000;-0.4257;0.0599;0.0793;0.437
1.075000;-0.4178;0.0339;0.1472;0.444
1.076000;-0.4367;0.0244;0.2031;0.482
1.076000;-0.4491;-0.0023;0.2446;0.511
1.078000;-0.4291;-0.0200;0.2743;0.510
1.079000;-0.4145;-0.0146;0.2927;0.508
1.086000;-0.4103;-0.0311;0.3182;0.520
1.088000;-0.3906;-0.0557;0.3339;0.517
1.094000;-0.3836;-0.0523;0.3259;0.506
1.098000;-0.3269;-0.0543;0.3395;0.474
1.105000;-0.3015;-0.0757;0.3126;0.441
1.107000;-0.2664;-0.1094;0.3240;0.434
1.112000;-0.2596;-0.1145;0.2973;0.411
1.118000;-0.2568;-0.1147;0.2753;0.394
1.123000;-0.2649;-0.0908;0.2629;0.384
1.128000;-0.2650;-0.0906;0.2242;0.359
1.132000;-0.2883;-0.0924;0.2380;0.385
1.137000;-0.3088;-0.0770;0.2134;0.383
1.145000;-0.3147;-0.1138;0.2271;0.404
1.146000;-0.3062;-0.1097;0.2526;0.412
1.152000;-0.2858;-0.1006;0.2780;0.411
1.157000;-0.2776;-0.1342;0.3367;0.457
1.174000;-0.2579;-0.1369;0.3930;0.490
1.174000;-0.2531;-0.1469;0.4826;0.564
1.174000;-0.2679;-0.1479;0.5364;0.618
1.183000;-0.2784;-0.1544;0.6022;0.681
1.184000;-0.2871;-0.1545;0.6537;0.731
1.187000;-0.2960;-0.1604;0.6480;0.730
1.194000;-0.3119;-0.1817;0.6307;0.727
1.198000;-0.2631;-0.1660;0.5635;0.644
1.201000;-0.2807;-0.1467;0.4657;0.563
1.206000;-0.2549;-0.1328;0.3204;0.430
1.211000;-0.2048;-0.1025;0.2256;0.321
1.217000;-0.1759;-0.0963;0.1215;0.234
1.221000;-0.1397;-0.0468;0.0366;0.152
1.227000;-0.0698;-0.0425;-0.0697;0.107
1.232000;-0.0451;-0.0257;-0.1115;0.123
1.235000;-0.0441;-0.0152;-0.1510;0.158
1.240000;-0.0239;0.0078;-0.1858;0.187
1.248000;0.0229;0.0364;-0.1825;0.187
1.249000;0.0362;0.0561;-0.1411;0.156
1.254000;0.0803;0.0952;-0.1143;0.169
1.259000;0.1006;0.1131;-0.0732;0.168
1.265000;0.1159;0.1310;-0.0179;0.176
1.269000;0.1598;0.1321;0.0111;0.208
1.274000;0.1941;0.1139;0.0352;0.228
1.278000;0.1924;0.1074;0.0546;0.227
1.284000;0.1998;0.0934;0.0502;0.226
1.289000;0.1473;0.0504;0.0650;0.169
1.294000;0.1468;0.0215;0.1252;0.194
1.299000;0.1100;-0.0268;0.1638;0.199
1.303000;0.0991;-0.0780;0.1835;0.223
1.308000;0.0664;-0.0914;0.1960;0.226
1.313000;0.0079;-0.1339;0.1585;0.208
1.318000;0.0285;-0.1360;0.1260;0.188
1.323000;0.0284;-0.1170;0.0625;0.136
1.327000;0.0026;-0.1457;-0.0535;0.155
1.334000;-0.0011;-0.1528;-0.1334;0.203
1.338000;0.0197;-0.1068;-0.1655;0.198
1.345000;0.0407;-0.0628;-0.2097;0.223
1.348000;0.0716;-0.0420;-0.2587;0.272
1.353000;0.1265;-0.0422;-0.2839;0.314
1.357000;0.1406;-0.0154;-0.2781;0.312
1.363000;0.1738;-0.0023;-0.2702;0.321
1.367000;0.1781;-0.0007;-0.2647;0.319
1.372000;0.2373;0.0108;-0.2283;0.329
1.377000;0.2436;-0.0159;-0.2039;0.318
1.382000;0.2473;0.0101;-0.1700;0.300
1.386000;0.2481;0.0025;-0.1338;0.282
1.392000;0.2437;0.0162;-0.1430;0.283
1.397000;0.2675;0.0132;-0.2071;0.339
1.402000;0.2315;0.0007;-0.2257;0.323
1.407000;0.2098;-0.0166;-0.2491;0.326
1.412000;0.2072;-0.0169;-0.2916;0.358
1.417000;0.1686;-0.0384;-0.3293;0.372
1.426000;0.1325;-0.0594;-0.3336;0.364
1.432000;0.1059;-0.0799;-0.3452;0.370
1.432000;0.0862;-0.0690;-0.3115;0.330
1.436000;0.0782;-0.0671;-0.2636;0.283
1.440000;0.0436;-0.0745;-0.1657;0.187
1.446000;0.0489;-0.0933;-0.0842;0.135
1.452000;0.0349;-0.0977;-0.0175;0.105
1.457000;0.0422;-0.0882;0.0084;0.098
1.471000;0.0538;-0.0508;0.0484;0.088
1.472000;0.0459;-0.0332;0.0621;0.084
1.473000;0.0615;-0.0140;0.0355;0.072
1.475000;0.0839;0.0380;-0.0098;0.093
1.481000;0.1200;0.0871;-0.0216;0.150
1.486000;0.1272;0.1311;-0.0901;0.204
1.489000;0.1795;0.1964;-0.1083;0.287
1.495000;0.1937;0.1975;-0.1099;0.298
1.499000;0.2058;0.2086;-0.1092;0.313
1.504000;0.2064;0.1728;0.0883;0.283
1.509000;0.2078;0.1945;-0.1169;0.308
1.514000;0.1815;0.2020;-0.0073;0.272
1.519000;0.1537;0.1671;0.0563;0.234
1.524000;0.1053;0.1489;0.0315;0.185
1.529000;0.0813;0.1664;0.0142;0.186
1.533000;0.0623;0.1696;-0.0079;0.181
1.538000;0.0434;0.1702;-0.0557;0.184
1.558000;0.0460;0.1543;-0.0510;0.169
1.558000;0.0720;0.1409;-0.0677;0.172
1.559000;0.0832;0.0919;-0.1056;0.163
1.559000;0.0942;0.0979;-0.1171;0.179
1.563000;0.1024;0.0802;-0.1261;0.181
1.568000;0.0700;0.0889;-0.1066;0.155
1.573000;0.0236;0.0738;-0.1063;0.132
1.583000;-0.0179;0.0874;-0.0490;0.102
1.586000;-0.0164;0.0605;-0.0302;0.070
1.587000;-0.0507;0.0338;0.0454;0.076
1.593000;-0.0710;0.0120;0.0967;0.121
1.597000;-0.0490;-0.0077;0.1027;0.114
1.602000;-0.0398;0.0126;0.1205;0.127
1.607000;0.0048;0.0419;0.1430;0.149
1.612000;0.0154;0.0847;0.1275;0.154
1.617000;0.0210;0.1151;0.1240;0.170
1.622000;0.0432;0.1572;0.1253;0.206
1.631000;0.1037;0.1466;0.0672;0.192
1.637000;0.1430;0.1268;0.0452;0.196
1.638000;0.1377;0.1002;-0.0217;0.172
1.662000;0.1285;0.0907;-0.0953;0.184
1.662000;0.0914;0.0653;-0.0118;0.113
1.663000;0.0475;0.0690;0.0092;0.084
1.663000;-0.0407;0.0445;-0.0151;0.062
1.663000;-0.0734;0.0585;0.0865;0.128
1.666000;-0.1040;0.0177;0.1729;0.203
1.671000;-0.1109;-0.0299;0.2279;0.255
1.676000;-0.1109;-0.0448;0.2589;0.285
1.681000;-0.1068;-0.0959;0.2304;0.271
1.686000;-0.1125;-0.1187;0.2095;0.266
1.691000;-0.1162;-0.1039;0.1937;0.249
1.696000;-0.1249;-0.0637;0.1282;0.190
1.701000;-0.1290;-0.0099;0.0516;0.139
1.705000;-0.1308;0.0004;-0.0434;0.138
1.710000;-0.1205;0.0204;-0.0379;0.128
1.715000;-0.0700;0.0263;-0.1845;0.199
1.720000;-0.0218;0.0020;-0.2089;0.210
1.724000;0.0242;0.0190;-0.1907;0.193
1.730000;0.0890;-0.0012;-0.1277;0.156
1.735000;0.0875;0.0057;-0.1034;0.136
1.739000;0.0725;-0.0200;0.0083;0.076
1.756000;0.0749;-0.0286;0.0858;0.117
1.757000;0.0447;-0.0393;0.1484;0.160
1.758000;0.0247;-0.0620;0.2484;0.257
1.759000;-0.0165;-0.0352;0.2789;0.282
1.765000;-0.0740;-0.0780;0.3094;0.328
1.769000;-0.1171;-0.0502;0.3350;0.358
1.774000;-0.1222;-0.0855;0.2824;0.319
1.778000;-0.1350;-0.1144;0.2471;0.304
1.784000;-0.1272;-0.1108;0.2100;0.269
1.788000;-0.1534;-0.1008;0.1139;0.216
1.793000;-0.1541;-0.0986;0.0284;0.185
1.798000;-0.1462;-0.0898;-0.0041;0.172
1.803000;-0.1489;-0.0433;-0.0506;0.163
1.808000;-0.1189;-0.0065;-0.0349;0.124
1.813000;-0.1087;0.0132;-0.0740;0.132
1.818000;-0.0490;0.0592;-0.1104;0.135
1.822000;0.0075;0.0693;-0.1394;0.156
1.828000;0.0238;0.0775;-0.1612;0.180
1.833000;0.0736;0.1264;-0.1639;0.220
1.838000;0.0831;0.1424;-0.1431;0.218
1.842000;0.1024;0.1610;-0.1771;0.260
1.849000;0.1129;0.1158;-0.1492;0.220
1.854000;0.1098;0.0809;-0.1074;0.174
1.857000;0.0932;0.0180;-0.0755;0.121
1.882000;0.0414;-0.0208;-0.0154;0.049
1.883000;-0.0382;-0.0401;-0.0104;0.056
1.883000;-0.1102;-0.0215;-0.0030;0.112
1.884000;-0.1652;-0.0316;-0.0455;0.174
1.892000;-0.1751;-0.0297;-0.0686;0.190
1.893000;-0.1779;-0.0088;-0.1082;0.208
1.893000;-0.1809;-0.0403;-0.1261;0.224
1.903000;-0.1363;-0.0167;-0.1629;0.213
1.904000;-0.1016;-0.0192;-0.1638;0.194
1.906000;-0.0743;0.0070;-0.1861;0.201
1.912000;-0.0470;0.0214;-0.1514;0.160
1.919000;-0.0152;0.0241;-0.1241;0.127
1.921000;0.0021;0.0129;-0.1185;0.119
1.925000;0.0290;0.0351;-0.0584;0.074
1.937000;-0.0250;0.0003;0.0083;0.026
1.938000;-0.0291;-0.0249;0.1171;0.123
1.940000;-0.0883;-0.0194;0.1375;0.165
1.954000;-0.0930;-0.0598;0.1435;0.181
1.954000;-0.0952;-0.0888;0.1355;0.188
1.955000;-0.0898;-0.1491;0.1040;0.203
1.960000;-0.1032;-0.1432;0.0871;0.197
1.972000;-0.1307;-0.1306;0.0491;0.191
1.973000;-0.1298;-0.1019;0.0163;0.166
1.975000;-0.1526;-0.0758;-0.0233;0.172
1.995000;-0.1845;-0.0760;-0.0698;0.211
1.997000;-0.1401;-0.0522;-0.0898;0.174
1.998000;-0.1453;-0.0713;-0.1144;0.198
1.998000;-0.1071;-0.0659;-0.1533;0.198
1.999000;-0.0635;-0.0649;-0.1824;0.204
2.005000;-0.0408;-0.0516;-0.1829;0.194
2.009000;-0.0032;-0.0618;-0.2024;0.212
2.020000;0.0133;-0.0764;-0.1745;0.191
2.020000;0.0513;-0.0502;-0.1872;0.200
2.025000;0.0366;-0.0384;-0.1713;0.179
2.036000;0.0242;-0.0029;-0.1745;0.176
2.037000;0.0234;0.0230;-0.1588;0.162
2.039000;0.0415;0.0274;-0.1408;0.149
2.054000;0.0331;0.0458;-0.1206;0.133
2.055000;0.0147;0.0474;-0.1219;0.132
2.055000;-0.0017;0.0823;-0.1351;0.158
2.058000;0.0006;0.0718;-0.1386;0.156
2.094000;-0.0471;0.0663;-0.1066;0.134
2.094000;-0.0517;0.0515;-0.1152;0.136
2.095000;-0.0513;0.0370;-0.1143;0.131
2.095000;-0.0434;0.0228;-0.1347;0.143
2.096000;-0.0753;-0.0075;-0.1552;0.173
2.097000;-0.0923;-0.0183;-0.1897;0.212
2.097000;-0.0831;-0.0026;-0.1956;0.213
2.104000;-0.0811;-0.0270;-0.1802;0.199
2.105000;-0.0748;-0.0389;-0.1578;0.179
2.107000;-0.0573;-0.0198;-0.1167;0.132
2.115000;-0.0070;-0.0292;-0.0712;0.077
2.117000;0.0444;-0.0243;0.0024;0.051
2.122000;0.0757;-0.0290;0.0469;0.094
2.127000;0.1560;0.0277;0.0936;0.184
2.132000;0.2138;-0.0044;0.1399;0.256
2.136000;0.2828;0.0204;0.1884;0.340
2.141000;0.3323;0.0420;0.2129;0.397
2.148000;0.3721;0.0916;0.2372;0.451
2.153000;0.3883;0.0883;0.2329;0.461
2.156000;0.3768;0.1392;0.1623;0.433
2.161000;0.3313;0.1421;0.0900;0.372
2.175000;0.3097;0.1188;0.0799;0.341
2.176000;0.2967;0.1242;-0.1485;0.354
2.176000;0.2395;0.1250;-0.0262;0.271
2.181000;0.1876;0.1238;-0.0212;0.226
2.185000;0.1738;0.1608;-0.1208;0.266
2.190000;0.1384;0.1576;-0.0891;0.228
2.195000;0.1196;0.1357;-0.1029;0.208
2.200000;0.1289;0.1141;-0.1331;0.218
2.205000;0.1164;0.0930;-0.1371;0.202
2.209000;0.1058;0.0746;-0.1435;0.193
2.215000;0.1067;0.0472;-0.1546;0.194
2.219000;0.0765;0.0700;-0.2059;0.231
2.225000;0.0820;0.0502;-0.2214;0.241
2.231000;0.1060;0.0337;-0.2084;0.236
2.234000;0.0870;0.0392;-0.2051;0.226
2.239000;0.0348;0.0571;-0.1522;0.166
2.244000;0.0115;0.0638;-0.0880;0.109
2.249000;-0.0213;0.0732;-0.0268;0.081
2.257000;-0.0728;0.0710;0.0788;0.129
2.259000;-0.1053;0.0191;0.2121;0.238
2.277000;-0.1167;-0.0018;0.3063;0.328
2.277000;-0.1687;-0.0727;0.3287;0.377
2.278000;-0.1847;-0.1153;0.3724;0.431
2.279000;-0.1804;-0.1620;0.4380;0.501
2.284000;-0.1978;-0.1690;0.4512;0.521
2.289000;-0.1915;-0.1555;0.4336;0.499
2.294000;-0.1974;-0.1477;0.4019;0.472
2.298000;-0.1891;-0.1574;0.3370;0.417
2.303000;-0.1880;-0.1628;0.2579;0.358
2.308000;-0.1797;-0.1735;0.1886;0.313
2.312000;-0.1620;-0.1554;0.0955;0.244
2.317000;-0.1583;-0.1204;-0.0071;0.199
2.326000;-0.1899;-0.0801;-0.0859;0.223
2.327000;-0.1994;-0.0605;-0.0811;0.224
2.333000;-0.1773;-0.0400;-0.0168;0.183
2.337000;-0.1741;-0.0187;0.0210;0.176
2.342000;-0.1376;0.0151;0.1231;0.185
2.362000;-0.1280;-0.0272;0.2536;0.285
2.363000;-0.0928;-0.0578;0.3482;0.365
2.363000;-0.0678;-0.1175;0.4572;0.477
2.364000;-0.0792;-0.1327;0.5399;0.562
2.367000;-0.1149;-0.1659;0.5655;0.600
2.372000;-0.1269;-0.1931;0.5675;0.613
2.376000;-0.1653;-0.1904;0.4909;0.552
2.381000;-0.2252;-0.1745;0.4194;0.507
2.386000;-0.2514;-0.1642;0.3100;0.432
2.391000;-0.2342;-0.1449;0.2558;0.376
2.397000;-0.2213;-0.1380;0.1755;0.314
2.400000;-0.2103;-0.1476;0.0929;0.273
2.406000;-0.1889;-0.1021;0.0007;0.215
2.411000;-0.1378;-0.1183;-0.0460;0.187
2.417000;-0.0806;-0.0983;-0.1263;0.179
2.421000;-0.0342;-0.0827;-0.1827;0.203
2.426000;-0.0227;-0.0263;-0.2175;0.220
2.430000;-0.0083;-0.0173;-0.2453;0.246
2.435000;0.0040;0.0351;-0.2755;0.278
2.440000;0.0375;0.0948;-0.2603;0.280
2.445000;0.0753;0.1189;-0.2906;0.323
2.450000;0.0715;0.1336;-0.3042;0.340
2.454000;0.0905;0.1580;-0.3177;0.366
2.460000;0.1014;0.1563;-0.3265;0.376
2.479000;0.0971;0.1621;-0.3139;0.366
2.480000;0.0850;0.1275;-0.2488;0.292
2.481000;0.0459;0.1169;-0.2124;0.247
2.481000;0.0112;0.0657;-0.1927;0.204
2.485000;0.0266;0.0337;-0.1636;0.169
2.489000;-0.0081;0.0231;-0.1632;0.165
2.494000;-0.0375;-0.0092;-0.1626;0.167
2.499000;-0.0521;-0.0369;-0.1621;0.174
2.504000;-0.0926;-0.0382;-0.1616;0.190
2.509000;-0.0872;-0.0563;-0.1873;0.214
2.514000;-0.1007;-0.0578;-0.2250;0.253
2.518000;-0.0998;-0.0616;-0.2530;0.279
2.525000;-0.0964;-0.0676;-0.2810;0.305
2.528000;-0.0765;-0.0878;-0.3450;0.364
2.533000;-0.0403;-0.0548;-0.3778;0.384
2.537000;-0.0691;-0.0453;-0.3917;0.400
2.543000;-0.0746;-0.0256;-0.4152;0.423
2.563000;-0.0374;0.0139;-0.3791;0.381
2.564000;-0.0245;0.0278;-0.3600;0.362
2.564000;0.0193;0.0328;-0.3243;0.327
2.565000;0.0341;0.0003;-0.2865;0.289
2.569000;0.0631;0.0042;-0.2058;0.215
2.572000;0.0749;-0.0225;-0.1205;0.144
2.577000;0.0699;-0.0009;-0.0546;0.089
2.586000;0.0674;-0.0174;0.0232;0.073
2.587000;0.0652;-0.0268;0.1295;0.147
2.592000;0.0539;-0.0079;0.2358;0.242
2.597000;0.0669;-0.0134;0.3015;0.309
2.602000;0.0369;-0.0266;0.3481;0.351
2.606000;0.0382;0.0002;0.3255;0.328
2.612000;0.0355;0.0045;0.3485;0.350
2.616000;-0.0000;0.0271;0.3191;0.320
2.621000;-0.0134;0.0443;0.2828;0.287
2.626000;-0.0074;0.0681;0.1820;0.194
2.634000;-0.0178;0.0820;0.1126;0.140
2.636000;-0.0447;0.0957;0.0360;0.112
2.641000;-0.0286;0.1072;-0.0189;0.113
2.646000;-0.0555;0.1118;-0.0834;0.150
2.653000;-0.0538;0.1240;-0.1265;0.185
2.655000;-0.0642;0.1032;-0.1648;0.205
2.660000;-0.0869;0.1189;-0.1482;0.209
2.680000;-0.0814;0.1088;-0.0983;0.168
2.681000;-0.0573;0.1037;-0.0653;0.135
2.681000;-0.0720;0.0894;-0.0132;0.116
2.681000;-0.0798;0.1018;0.0746;0.149
2.684000;-0.0519;0.0807;0.1813;0.205
2.689000;-0.0529;0.0905;0.2569;0.277
2.695000;-0.0445;0.0930;0.3181;0.334
2.700000;-0.0435;0.0546;0.3793;0.386
2.704000;-0.0374;0.0276;0.4597;0.462
2.709000;-0.0237;0.0071;0.4828;0.483
2.716000;-0.0410;0.0002;0.5084;0.510
2.720000;-0.0557;0.0142;0.5222;0.525
2.726000;-0.0535;0.0276;0.5170;0.520
2.729000;-0.0654;0.0068;0.4952;0.500
2.736000;-0.0863;0.0406;0.4425;0.453
2.738000;-0.0733;0.0357;0.4282;0.436
2.745000;-0.0958;0.0401;0.3805;0.394
2.768000;-0.0607;0.0299;0.3496;0.356
2.769000;-0.0492;0.0577;0.3021;0.312
2.769000;-0.0517;0.0352;0.2953;0.302
2.770000;-0.0278;0.0534;0.2288;0.237
2.770000;-0.0324;0.0404;0.1767;0.184
2.773000;0.0131;0.0536;0.1176;0.130
2.778000;0.0109;0.0432;0.0345;0.056
2.787000;0.0182;0.0834;0.0566;0.102
2.788000;-0.0033;0.0761;0.0093;0.077
2.793000;0.0257;0.0402;-0.0069;0.048
2.798000;0.0332;0.0236;0.0223;0.046
2.806000;0.0666;-0.0072;0.0415;0.079
2.807000;0.0831;-0.0093;0.0037;0.084
2.812000;0.1066;-0.0186;-0.0243;0.111
2.817000;0.0920;-0.0112;-0.0591;0.110
2.825000;0.0682;-0.0111;-0.0320;0.076
2.827000;0.0683;0.0222;-0.0383;0.081
2.831000;0.0181;0.0029;-0.0754;0.078
2.837000;0.0317;0.0524;-0.0290;0.068
2.841000;0.0375;0.0062;0.1048;0.111
2.846000;0.0452;0.0145;-0.0542;0.072
2.852000;0.0622;-0.0013;-0.0267;0.068
2.856000;0.0715;-0.0270;-0.0587;0.096
2.861000;0.0260;-0.0362;-0.1662;0.172
2.887000;0.0069;-0.0191;-0.2325;0.233
2.888000;-0.0121;-0.0258;-0.2935;0.295
2.888000;-0.0382;-0.0391;-0.3807;0.385
2.888000;-0.0570;-0.0255;-0.4009;0.406
2.889000;-0.0777;-0.0468;-0.3879;0.398
2.890000;-0.0884;-0.0649;-0.4134;0.428
2.895000;-0.0866;-0.0867;-0.4128;0.431
2.901000;-0.0891;-0.0840;-0.3980;0.416
2.905000;-0.0962;-0.0685;-0.4026;0.420
2.910000;-0.1007;-0.0692;-0.3690;0.389
2.916000;-0.0980;-0.0405;-0.3500;0.366
2.921000;-0.0856;-0.0449;-0.3073;0.322
2.926000;-0.0735;-0.0157;-0.2694;0.280
2.930000;-0.0476;-0.0297;-0.2243;0.231
2.935000;-0.0322;0.0041;-0.2056;0.208
2.939000;0.0107;0.0165;-0.1367;0.138
2.946000;0.0093;0.0312;-0.0655;0.073
2.966000;-0.0005;0.0288;0.0248;0.038
2.966000;0.0031;0.0022;0.0960;0.096
2.967000;-0.0058;-0.0439;0.1552;0.161
2.967000;-0.0174;-0.0882;0.1787;0.200
2.969000;-0.0263;-0.0971;0.1832;0.209
2.974000;-0.0493;-0.1112;0.1566;0.198
2.979000;-0.0503;-0.1374;0.1278;0.194
2.984000;-0.0958;-0.1734;0.0728;0.211
2.989000;-0.1321;-0.1415;0.0153;0.194
2.994000;-0.1316;-0.1947;-0.0465;0.240
2.998000;-0.1302;-0.2069;-0.0842;0.259
3.002000;-0.1376;-0.1947;-0.0909;0.255
3.008000;-0.1445;-0.1703;-0.1403;0.264
3.013000;-0.1342;-0.1408;-0.1681;0.257
3.018000;-0.0975;-0.1109;-0.1721;0.227
3.026000;-0.0823;-0.1091;-0.1288;0.188
3.027000;-0.0583;-0.1116;-0.0740;0.146
3.035000;-0.0236;-0.0875;0.0252;0.094
3.041000;-0.0187;-0.1183;0.1474;0.190
3.043000;-0.0218;-0.1108;0.2971;0.318
3.047000;-0.0518;-0.1302;0.3982;0.422
3.073000;-0.0706;-0.1204;0.4975;0.517
3.073000;-0.1281;-0.1241;0.5421;0.571
3.074000;-0.1451;-0.1079;0.5249;0.555
3.074000;-0.1691;-0.1026;0.4172;0.462
3.074000;-0.2236;-0.1152;0.3218;0.409
3.076000;-0.2394;-0.1501;0.1790;0.334
3.081000;-0.2712;-0.1399;-0.0137;0.305
3.090000;-0.3096;-0.1560;-0.1083;0.363
3.091000;-0.2809;-0.1310;-0.2291;0.385
3.096000;-0.2712;-0.1243;-0.3213;0.438
3.101000;-0.2209;-0.0712;-0.3586;0.427
3.108000;-0.1755;-0.0193;-0.4010;0.438
3.111000;-0.1328;0.0291;-0.3576;0.383
3.116000;-0.0713;0.0812;-0.3051;0.324
3.124000;0.0115;0.0937;-0.2146;0.234
3.125000;0.0678;0.1071;-0.0790;0.149
3.131000;0.1289;0.1016;0.0228;0.166
3.135000;0.1495;0.1057;0.1795;0.256
3.140000;0.1298;0.1071;0.2620;0.311
3.145000;0.1224;0.0886;0.3183;0.352
3.152000;0.0912;0.0692;0.3269;0.346
3.155000;0.0314;0.0390;0.3095;0.314
3.160000;-0.0235;0.0100;0.2566;0.258
3.193000;-0.0690;-0.0033;0.1467;0.162
3.193000;-0.1386;-0.0222;0.0204;0.142
3.194000;-0.1511;-0.0129;-0.0746;0.169
3.194000;-0.1617;-0.0060;-0.2196;0.273
3.194000;-0.1587;-0.0012;-0.3048;0.344
3.195000;-0.1514;0.0284;-0.3733;0.404
3.195000;-0.0942;0.0423;-0.3919;0.405
3.200000;-0.0252;0.0764;-0.3604;0.369
3.205000;0.0393;0.0973;-0.3246;0.341
3.209000;0.1045;0.1193;-0.2221;0.273
3.214000;0.1558;0.0991;-0.1367;0.230
3.219000;0.1840;0.1059;-0.0348;0.215
3.223000;0.2152;0.0913;0.0931;0.252
3.228000;0.1945;0.0886;0.1636;0.269
3.235000;0.1716;0.0662;0.2293;0.294
3.241000;0.1177;0.0407;0.2832;0.309
3.246000;0.0804;0.0046;0.3063;0.317
3.277000;0.0308;-0.0326;0.2769;0.281
3.278000;-0.0409;-0.0302;0.2312;0.237
3.278000;-0.0678;-0.0552;0.1189;0.148
3.278000;-0.1046;-0.0378;-0.0099;0.112
3.279000;-0.1061;-0.0446;-0.1026;0.154
3.279000;-0.0915;-0.0174;-0.1929;0.214
3.280000;-0.0583;-0.0207;-0.2426;0.250
3.284000;-0.0301;-0.0134;-0.2207;0.223
3.288000;0.0248;0.0046;-0.1873;0.189
3.292000;0.0465;0.0091;-0.1015;0.112
3.297000;0.0452;0.0312;0.0031;0.055
3.302000;0.0495;0.0490;0.1074;0.128
3.307000;0.0641;0.0718;0.1948;0.217
3.311000;0.0195;0.0754;0.2893;0.300
3.317000;0.0016;0.0424;0.3288;0.332
3.321000;-0.0065;0.0351;0.3733;0.375
3.326000;-0.0457;0.0315;0.3797;0.384
3.332000;-0.0803;-0.0237;0.3338;0.344
3.336000;-0.0867;-0.0131;0.2907;0.304
3.341000;-0.1056;-0.0059;0.1929;0.220
3.346000;-0.0821;0.0126;0.0620;0.104
3.352000;-0.0591;0.0189;-0.0449;0.077
3.356000;-0.0465;0.0372;-0.1110;0.126
3.360000;-0.0006;0.0750;-0.1627;0.179
3.394000;0.0403;0.0991;-0.1835;0.212
3.394000;0.0693;0.1431;-0.1758;0.237
3.395000;0.1108;0.1735;-0.1396;0.249
3.395000;0.1434;0.1739;-0.0965;0.245
3.395000;0.1483;0.1869;-0.0609;0.246
3.396000;0.1062;0.1598;0.0081;0.192
3.396000;0.1081;0.1664;0.0864;0.216
3.399000;0.0413;0.1277;0.1360;0.191
3.407000;0.0154;0.1512;0.1520;0.215
3.410000;-0.0153;0.1048;0.1585;0.191
3.414000;-0.0460;0.0652;0.1342;0.156
3.420000;-0.0793;0.0106;0.1004;0.128
3.425000;-0.1083;0.0035;0.0692;0.129
3.429000;-0.1211;-0.0017;0.0022;0.121
3.435000;-0.1264;-0.0427;-0.0261;0.136
3.439000;-0.1441;-0.0526;-0.0376;0.158
3.444000;-0.1243;-0.0436;-0.0418;0.138
3.449000;-0.1525;-0.0109;-0.0697;0.168
3.477000;-0.1542;-0.0119;-0.0784;0.173
3.478000;-0.1322;-0.0175;-0.0941;0.163
3.478000;-0.1033;-0.0277;-0.0599;0.123
3.478000;-0.0703;-0.0208;0.0096;0.074
3.479000;-0.0501;-0.0375;0.0523;0.082
3.479000;-0.0352;0.0056;0.0993;0.106
3.486000;-0.0464;0.0128;0.1602;0.167
3.487000;-0.0543;0.0386;0.2277;0.237
3.493000;-0.0520;0.0546;0.2211;0.234
3.498000;-0.0727;0.0987;0.2313;0.262
3.506000;-0.0756;0.0403;0.3268;0.338
3.508000;-0.0752;0.0724;0.0134;0.105
3.513000;-0.0810;0.0379;0.0324;0.095
3.518000;-0.0817;-0.0009;0.0346;0.089
3.524000;-0.0896;-0.0157;-0.0558;0.107
3.527000;-0.1405;-0.0323;-0.0672;0.159
3.532000;-0.1535;-0.0464;-0.0880;0.183
3.537000;-0.1694;-0.0364;-0.1110;0.206
3.542000;-0.1975;-0.0427;-0.1268;0.239
3.547000;-0.2142;-0.0322;-0.0714;0.228
3.552000;-0.1912;-0.0050;-0.0306;0.194
3.556000;-0.1429;-0.0162;0.0430;0.150
3.561000;-0.1098;-0.0058;0.0876;0.141
3.589000;-0.0936;-0.0239;0.1175;0.152
3.590000;-0.0655;-0.0183;0.1686;0.182
3.590000;-0.0371;-0.0203;0.2051;0.209
3.591000;-0.0226;-0.0202;0.2034;0.206
3.591000;-0.0148;0.0126;0.1876;0.189
3.591000;-0.0139;0.0470;0.1317;0.141
3.596000;0.0087;0.0738;0.0835;0.112
3.602000;0.0076;0.0742;0.0119;0.076
3.605000;-0.0262;0.0747;-0.0567;0.097
3.611000;-0.0050;0.0752;-0.1200;0.142
3.615000;-0.0289;0.0832;-0.1758;0.197
3.621000;-0.0148;0.0942;-0.2099;0.231
3.625000;-0.0343;0.0722;-0.1868;0.203
3.630000;-0.0376;0.0631;-0.1428;0.161
3.635000;-0.0555;0.0308;-0.0803;0.102
3.640000;-0.0880;-0.0007;-0.0042;0.088
3.645000;-0.0779;-0.0082;0.0974;0.125
3.652000;-0.1015;-0.0273;0.2195;0.243
3.656000;-0.1155;-0.0347;0.2790;0.304
3.659000;-0.1197;-0.0520;0.3024;0.329
3.664000;-0.1400;-0.0578;0.2973;0.334
3.681000;-0.1454;-0.0949;0.2758;0.326
3.682000;-0.1477;-0.1133;0.2521;0.313
3.682000;-0.1968;-0.0986;0.2074;0.302
3.684000;-0.1666;-0.1129;0.1466;0.249
3.689000;-0.1530;-0.1391;0.0910;0.226
3.694000;-0.1322;-0.1037;0.0312;0.171
3.699000;-0.1142;-0.0899;-0.0114;0.146
3.705000;-0.0848;-0.0715;-0.0419;0.119
3.708000;-0.0535;-0.0530;-0.0864;0.115
3.714000;-0.0154;-0.0108;-0.0949;0.097
3.718000;0.0411;-0.0069;-0.1438;0.150
3.723000;0.0471;-0.0100;-0.1329;0.141
3.728000;0.0957;0.0081;-0.1149;0.150
3.736000;0.1227;0.0214;-0.1257;0.177
3.738000;0.1043;0.0632;-0.1672;0.207
3.746000;0.1143;0.1118;-0.1846;0.244
3.748000;0.0810;0.1457;-0.2541;0.304
3.774000;0.0558;0.0773;-0.3158;0.330
3.775000;0.0805;0.0740;-0.1874;0.217
3.775000;0.1404;0.0902;-0.3306;0.370
3.776000;0.1450;0.1067;-0.2663;0.321
3.776000;0.1354;0.1142;-0.2051;0.271
3.777000;0.1024;0.1006;-0.2156;0.259
3.782000;0.0870;0.0729;-0.1810;0.214
3.788000;0.0649;0.0571;-0.2083;0.225
3.792000;0.0335;0.0342;-0.2448;0.249
3.797000;-0.0093;0.0140;-0.2431;0.244
3.801000;-0.0139;0.0108;-0.2699;0.271
3.807000;-0.0428;0.0266;-0.2942;0.298
3.811000;-0.0318;0.0233;-0.3063;0.309
3.816000;-0.0264;-0.0036;-0.3208;0.322
3.821000;-0.0098;-0.0322;-0.3305;0.332
3.826000;0.0248;-0.0272;-0.2927;0.295
3.831000;0.0320;0.0138;-0.2340;0.237
3.836000;0.0356;0.0167;-0.2067;0.210
3.840000;0.0690;0.0388;-0.1274;0.150
3.846000;0.0729;0.0585;-0.0394;0.101
3.853000;0.0762;0.0806;0.0479;0.121
3.862000;0.0790;0.0856;0.1179;0.166
3.862000;0.0675;0.0669;0.1304;0.161
3.865000;0.0970;0.0267;0.1736;0.201
3.894000;0.1125;-0.0302;0.1929;0.225
3.895000;0.0622;-0.0705;0.1434;0.171
3.895000;0.0415;-0.1062;0.1109;0.159
3.895000;-0.0217;-0.1229;0.0551;0.136
3.896000;-0.0584;-0.1111;0.0970;0.159
3.896000;-0.0745;-0.0971;0.0983;0.157
3.899000;-0.0988;-0.0832;0.1305;0.184
3.908000;-0.0911;-0.0788;0.2145;0.246
3.909000;-0.0536;-0.0770;0.2646;0.281
3.914000;-0.0097;-0.0637;0.3145;0.321
3.920000;0.0528;-0.0555;0.3236;0.333
3.924000;0.0868;-0.0668;0.3233;0.341
3.929000;0.1523;-0.0426;0.3135;0.351
3.936000;0.1673;-0.0021;0.2869;0.332
3.940000;0.1716;-0.0025;0.2484;0.302
3.949000;0.1367;0.0164;0.2147;0.255
3.950000;0.1126;-0.0006;0.2001;0.230
3.980000;0.0561;-0.0316;0.1664;0.178
3.981000;0.0077;-0.0290;0.1231;0.127
3.981000;-0.0329;-0.0884;0.1109;0.146
3.981000;-0.0997;-0.1454;0.0988;0.202
3.982000;-0.1357;-0.1688;0.0723;0.228
3.982000;-0.1773;-0.1660;0.1056;0.265
3.982000;-0.2462;-0.1968;0.1676;0.357
3.987000;-0.2543;-0.1776;0.2511;0.399
3.993000;-0.2685;-0.1707;0.2820;0.425
3.998000;-0.2501;-0.1572;0.3177;0.434
4.005000;-0.2246;-0.1277;0.3034;0.399
4.007000;-0.1390;-0.0917;0.2988;0.342
4.012000;-0.0886;-0.0849;0.2824;0.308
4.017000;-0.0708;-0.0211;0.2182;0.230
4.022000;-0.0281;0.0329;0.1232;0.131
4.026000;0.0108;0.0796;0.0162;0.082
4.031000;0.0818;0.1335;-0.0595;0.167
4.038000;0.1080;0.1494;-0.1232;0.222
4.044000;0.1583;0.1563;-0.2109;0.307
4.046000;0.1822;0.1780;-0.2604;0.364
4.078000;0.2201;0.1955;-0.3052;0.424
4.079000;0.2002;0.1681;-0.2711;0.377
4.079000;0.1678;0.1582;-0.2779;0.361
4.079000;0.1515;0.1609;-0.2395;0.326
4.079000;0.1178;0.1401;-0.1677;0.248
4.080000;0.0665;0.1388;-0.1415;0.209
4.081000;0.0310;0.1353;-0.0652;0.153
4.088000;0.0192;0.1056;-0.0200;0.109
4.091000;-0.0118;0.1044;0.0371;0.111
4.096000;0.0266;0.0696;0.0511;0.090
4.100000;0.0199;0.0345;0.0317;0.051
4.105000;0.0327;0.0543;0.0291;0.070
4.110000;0.0343;0.0499;-0.0045;0.061
4.115000;0.0267;0.0457;-0.0309;0.061
4.120000;0.0580;0.0654;-0.0597;0.106
4.125000;0.0609;0.0853;-0.1076;0.150
4.130000;0.0832;0.0932;-0.1172;0.171
4.135000;0.1411;0.1181;-0.1436;0.233
4.139000;0.1652;0.1314;-0.1390;0.253
4.146000;0.1982;0.1379;-0.1249;0.272
4.149000;0.1781;0.1638;-0.0417;0.246
4.155000;0.1766;0.1470;0.0104;0.230
4.159000;0.1626;0.1541;0.0624;0.233
4.165000;0.1291;0.1252;0.1311;0.222
4.186000;0.1023;0.1123;0.0302;0.155
4.187000;0.1087;0.0969;0.1493;0.209
4.187000;0.0910;0.0448;0.2709;0.289
4.188000;0.0926;0.0255;0.1559;0.183
4.188000;0.0993;0.0223;0.1344;0.169
4.193000;0.1158;0.0090;0.0844;0.144
4.198000;0.1182;0.0240;0.0202;0.122
4.207000;0.1138;0.0481;-0.0343;0.128
4.210000;0.1316;0.0746;-0.0959;0.179
4.213000;0.1381;0.0676;-0.1383;0.207
4.218000;0.1621;0.0678;-0.2022;0.268
4.223000;0.1843;0.1064;-0.2397;0.321
4.228000;0.1554;0.0994;-0.2398;0.303
4.232000;0.1739;0.0884;-0.2637;0.328
4.237000;0.1777;0.0589;-0.2425;0.306
4.242000;0.1694;-0.0008;-0.2334;0.288
4.247000;0.1634;-0.0503;-0.2149;0.275
4.255000;0.1552;-0.0872;-0.2156;0.280
4.257000;0.1232;-0.1166;-0.2449;0.298
4.261000;0.0582;-0.1434;-0.2240;0.272
4.267000;0.0197;-0.1462;-0.2437;0.285
4.297000;-0.0045;-0.1822;-0.2703;0.326
4.297000;-0.0430;-0.2342;-0.3228;0.401
4.298000;-0.1190;-0.2690;-0.3418;0.451
4.298000;-0.1445;-0.2939;-0.3559;0.484
4.298000;-0.1603;-0.3231;-0.3960;0.536
4.298000;-0.1904;-0.3212;-0.4286;0.568
4.306000;-0.2266;-0.2879;-0.4381;0.571
4.306000;-0.3154;-0.2304;-0.4428;0.590
4.311000;-0.3868;-0.1919;-0.4810;0.646
4.316000;-0.3849;-0.1395;-0.5741;0.705
4.321000;-0.3384;-0.1278;-0.6551;0.748
4.325000;-0.2771;-0.1664;-0.7169;0.786
4.330000;-0.2239;-0.1569;-0.8431;0.886
4.336000;-0.1268;-0.1325;-0.9574;0.975
4.340000;-0.0819;-0.0784;-1.0240;1.030
4.345000;-0.0036;-0.0830;-0.9951;0.999
4.350000;0.1317;-0.0217;-0.9307;0.940
4.355000;0.2446;0.0028;-0.7687;0.807
4.360000;0.3347;-0.0001;-0.5809;0.670
4.364000;0.4071;-0.0089;-0.3409;0.531
4.397000;0.4365;-0.0261;-0.0513;0.440
4.398000;0.4412;-0.0308;0.2045;0.487
4.398000;0.4055;-0.0496;0.4074;0.577
4.399000;0.3021;-0.0542;0.6244;0.696
4.399000;0.1845;-0.0592;0.8437;0.866
4.399000;0.0126;-0.0575;0.9743;0.976
4.400000;-0.1221;-0.0445;1.0785;1.086
4.408000;-0.2337;-0.0780;1.1183;1.145
4.408000;-0.3342;-0.0840;1.0769;1.131
4.414000;-0.4191;-0.1200;0.9473;1.043
4.419000;-0.4984;-0.1024;0.8373;0.980
4.424000;-0.5368;-0.0642;0.6678;0.859
4.428000;-0.5739;-0.0169;0.4890;0.754
4.433000;-0.5963;0.0729;0.3177;0.680
4.439000;-0.5619;0.2008;0.2327;0.640
4.443000;-0.5165;0.3144;0.1502;0.623
4.447000;-0.4393;0.3946;0.1036;0.600
4.471000;-0.3640;0.4968;0.1143;0.626
4.472000;-0.2548;0.5490;0.1513;0.624
4.472000;-0.1831;0.5849;0.2217;0.652
4.472000;-0.1340;0.6038;0.2896;0.683
4.472000;-0.0762;0.5819;0.3646;0.691
4.478000;-0.0571;0.5980;0.4444;0.747
4.483000;-0.0625;0.5919;0.5099;0.784
4.488000;-0.0731;0.5970;0.5659;0.826
4.492000;-0.0913;0.6302;0.6005;0.875
4.497000;-0.0857;0.6193;0.6090;0.873
4.502000;-0.0687;0.6126;0.6080;0.866
4.506000;-0.0403;0.5718;0.6048;0.833
4.511000;0.0280;0.5354;0.6136;0.815
4.516000;0.0668;0.4822;0.6416;0.805
4.522000;0.1333;0.4314;0.6624;0.802
4.527000;0.1780;0.3544;0.7166;0.819
4.531000;0.2369;0.3278;0.7588;0.860
4.536000;0.2795;0.2795;0.8177;0.908
4.541000;0.3345;0.2382;0.9291;1.016
4.546000;0.3379;0.2160;0.9879;1.066
4.551000;0.3472;0.1886;1.0657;1.137
4.556000;0.3627;0.1822;1.1005;1.173
4.561000;0.3633;0.1008;1.0686;1.133
4.568000;0.4159;0.0734;1.0224;1.106
4.593000;0.4341;0.0501;0.9287;1.026
4.594000;0.4128;0.0596;0.7970;0.900
4.594000;0.3973;0.0639;0.6846;0.794
4.594000;0.3373;0.0750;0.5916;0.685
4.595000;0.3259;0.1027;0.4891;0.597
4.595000;0.2838;0.0967;0.3749;0.480
4.600000;0.2349;0.0907;0.2895;0.384
4.605000;0.1934;0.1087;0.2209;0.313
4.610000;0.1545;0.0861;0.1357;0.223
4.615000;0.1201;0.0541;0.1342;0.188
4.621000;0.0541;0.0248;0.0992;0.116
4.626000;0.0090;-0.0287;0.0906;0.095
4.629000;-0.0654;-0.0561;0.1132;0.142
4.634000;-0.1549;-0.1364;0.0785;0.221
4.639000;-0.1754;-0.1525;0.0607;0.240
4.644000;-0.2491;-0.1810;-0.0120;0.308
4.649000;-0.2896;-0.2123;-0.0390;0.361
4.654000;-0.3206;-0.2371;-0.1233;0.417
4.659000;-0.3254;-0.2788;-0.2169;0.480
4.666000;-0.3401;-0.2419;-0.2625;0.493
4.668000;-0.3217;-0.2505;-0.3630;0.546
4.690000;-0.2776;-0.1996;-0.4107;0.534
4.691000;-0.2292;-0.1604;-0.4799;0.556
4.691000;-0.1695;-0.0829;-0.5419;0.574
4.691000;-0.1199;-0.0910;-0.5514;0.572
4.693000;-0.0950;-0.0436;-0.5657;0.575
4.698000;-0.0660;0.0235;-0.5634;0.568
4.705000;-0.0637;0.0672;-0.5421;0.550
4.707000;-0.0164;0.0875;-0.5305;0.538
4.713000;0.0117;0.0725;-0.4833;0.489
4.717000;-0.0157;0.0509;-0.4146;0.418
4.726000;0.0165;0.0278;-0.3774;0.379
4.727000;-0.0205;-0.0139;-0.3307;0.332
4.732000;-0.0328;-0.0719;-0.2674;0.279
4.739000;-0.0709;-0.1224;-0.2139;0.256
4.745000;-0.1133;-0.1441;-0.1270;0.223
4.747000;-0.1365;-0.1729;-0.1262;0.254
4.751000;-0.1931;-0.2019;-0.0800;0.291
4.769000;-0.1921;-0.2238;-0.0696;0.303
4.770000;-0.1958;-0.2507;-0.0640;0.324
4.770000;-0.1592;-0.2323;-0.0727;0.291
4.773000;-0.1591;-0.2405;-0.1099;0.309
4.776000;-0.1187;-0.2082;-0.1185;0.267
4.781000;-0.0857;-0.1878;-0.1700;0.267
4.787000;-0.0694;-0.1458;-0.1881;0.248
4.791000;0.0207;-0.1253;-0.2348;0.267
4.796000;0.0702;-0.0974;-0.2576;0.284
4.801000;0.1078;-0.0693;-0.2590;0.289
4.806000;0.1406;-0.0408;-0.2652;0.303
4.810000;0.1474;-0.0047;-0.2668;0.305
4.815000;0.1469;0.0411;-0.2277;0.274
4.821000;0.1247;0.0682;-0.1745;0.225
4.827000;0.1382;0.0740;-0.1548;0.220
4.830000;0.1392;0.0896;-0.1162;0.202
4.835000;0.1638;0.0794;-0.1326;0.225
4.840000;0.1594;-0.0239;0.0899;0.185
4.845000;0.1240;-0.0671;0.0015;0.141
4.850000;0.0745;-0.1081;0.0996;0.165
4.857000;0.0396;-0.1469;0.1665;0.226
4.865000;-0.0306;-0.1668;0.1450;0.223
4.865000;-0.0909;-0.1896;0.1213;0.243
4.869000;-0.1196;-0.2077;0.1072;0.263
4.907000;-0.1243;-0.2280;0.0907;0.275
4.908000;-0.1241;-0.2388;0.0503;0.274
4.909000;-0.1120;-0.2805;0.0506;0.306
4.909000;-0.1120;-0.2719;0.0436;0.297
4.910000;-0.0859;-0.2632;0.0367;0.279
4.910000;-0.0932;-0.2424;0.0417;0.263
4.910000;-0.0672;-0.2406;0.0705;0.260
4.911000;-0.0531;-0.2054;0.0850;0.229
4.913000;-0.0579;-0.1702;0.1018;0.207
4.919000;-0.0743;-0.1470;0.1306;0.210
4.923000;-0.0690;-0.1597;0.1522;0.231
4.928000;-0.0658;-0.1343;0.1427;0.207
4.933000;-0.0649;-0.1426;0.1117;0.192
4.938000;-0.0688;-0.1440;0.0379;0.164
4.945000;-0.0627;-0.1492;-0.0119;0.162
4.947000;-0.0472;-0.1305;-0.0731;0.157
4.952000;-0.0177;-0.1452;-0.1576;0.215
4.958000;-0.0572;-0.1265;-0.1868;0.233
4.966000;-0.0489;-0.1337;-0.2656;0.301
4.967000;-0.0456;-0.1357;-0.3036;0.336
4.984000;-0.0473;-0.1042;-0.3318;0.351
4.985000;-0.0634;-0.0890;-0.3528;0.369
4.985000;-0.0631;-0.0542;-0.3500;0.360
4.986000;-0.0466;-0.0384;-0.3094;0.315
4.995000;-0.0494;-0.0055;-0.2669;0.271
4.996000;-0.0549;0.0085;-0.1726;0.181
5.001000;-0.0653;0.0440;-0.1053;0.131
5.007000;-0.0376;0.0723;-0.0409;0.091
5.011000;-0.0767;0.1049;0.0253;0.132
5.016000;-0.0463;0.1109;0.0792;0.144
5.021000;-0.0590;0.1045;0.0995;0.156
5.026000;-0.0459;0.0788;0.0746;0.118
5.031000;-0.0382;0.0886;0.0572;0.112
5.036000;-0.0429;0.0813;0.0495;0.104
5.041000;-0.0386;0.0333;0.0040;0.051
5.045000;-0.0226;0.0471;-0.0529;0.074
5.050000;-0.0096;0.0558;-0.1117;0.125
5.077000;0.0409;0.0692;-0.1344;0.157
5.078000;0.0881;0.0851;-0.1806;0.218
5.078000;0.1273;0.1083;-0.1910;0.254
5.079000;0.1423;0.1295;-0.1753;0.260
5.079000;0.1663;0.1770;-0.1551;0.288
5.080000;0.1705;0.2223;-0.0710;0.289
5.085000;0.1508;0.2372;0.0501;0.285
5.090000;0.1214;0.2642;0.1819;0.343
5.095000;0.0787;0.2670;0.2958;0.406
5.099000;0.0626;0.2147;0.4095;0.467
5.104000;0.0353;0.1788;0.5160;0.547
5.109000;0.0111;0.1160;0.5652;0.577
5.114000;-0.0410;0.1048;0.5667;0.578
5.120000;-0.0830;0.0881;0.5541;0.567
5.125000;-0.1414;0.0802;0.5225;0.547
5.129000;-0.1400;0.0835;0.4434;0.472
5.134000;-0.1601;0.1293;0.3621;0.416
5.141000;-0.1586;0.1486;0.3191;0.386
5.143000;-0.0974;0.1943;0.2452;0.328
5.148000;-0.0409;0.2210;0.2000;0.301
5.153000;0.0038;0.2432;0.2264;0.332
5.159000;0.0416;0.2921;0.2073;0.361
5.166000;0.0964;0.3222;0.2263;0.405
5.168000;0.1278;0.3523;0.2621;0.457
5.200000;0.1263;0.3874;0.2881;0.499
5.201000;0.1732;0.3890;0.2998;0.521
5.202000;0.2036;0.3976;0.3354;0.559
5.202000;0.2200;0.3939;0.3591;0.577
5.202000;0.2341;0.3803;0.3565;0.571
5.202000;0.2411;0.3280;0.3182;0.517
5.206000;0.2268;0.2944;0.2872;0.470
5.207000;0.2220;0.2392;0.2372;0.403
5.214000;0.1861;0.2458;0.2065;0.371
5.217000;0.1571;0.2287;0.1351;0.309
5.225000;0.0779;0.2047;0.1260;0.253
5.227000;0.0445;0.1953;0.1263;0.237
5.231000;-0.0050;0.1554;0.1264;0.200
5.236000;-0.0443;0.0847;0.1456;0.174
5.246000;-0.0398;0.0599;0.1647;0.180
5.247000;-0.0757;0.0140;0.1980;0.212
5.251000;-0.0943;-0.0247;0.2170;0.238
5.258000;-0.1243;-0.0656;0.2621;0.297
5.262000;-0.1418;-0.0850;0.2857;0.330
5.265000;-0.1279;-0.0998;0.2949;0.337
5.271000;-0.1738;-0.1317;0.2971;0.369
5.298000;-0.1337;-0.1451;0.2564;0.324
5.298000;-0.1512;-0.1543;0.2112;0.302
5.299000;-0.1450;-0.1521;0.1446;0.255
5.299000;-0.1297;-0.1408;0.0615;0.201
5.299000;-0.0980;-0.1752;0.0240;0.202
5.303000;-0.0980;-0.1905;0.0320;0.217
5.308000;-0.0868;-0.1892;0.0256;0.210
5.310000;-0.0715;-0.1857;0.0098;0.199
5.315000;-0.0735;-0.1584;-0.0036;0.175
5.320000;-0.0686;-0.1362;-0.0240;0.154
5.325000;-0.0541;-0.1021;-0.0636;0.132
5.330000;-0.0492;-0.0823;-0.1270;0.159
5.335000;-0.0083;-0.0623;-0.1545;0.167
5.345000;0.0017;-0.0777;-0.1774;0.194
5.351000;-0.0024;-0.0952;-0.1788;0.203
5.352000;-0.0182;-0.0836;-0.1516;0.174
5.356000;-0.0578;-0.1002;-0.1388;0.181
5.396000;-0.0900;-0.1357;-0.1286;0.207
5.397000;-0.1171;-0.1400;-0.0969;0.207
5.397000;-0.1729;-0.1970;-0.1225;0.289
5.398000;-0.1929;-0.2135;-0.0955;0.303
5.398000;-0.1962;-0.2084;-0.1020;0.304
5.399000;-0.2095;-0.2202;-0.1299;0.331
5.399000;-0.2018;-0.2153;-0.1196;0.318
5.399000;-0.1970;-0.2057;-0.1331;0.314
5.401000;-0.1809;-0.1962;-0.1586;0.310
5.408000;-0.1221;-0.1843;-0.2198;0.312
5.408000;-0.0920;-0.1699;-0.2476;0.314
5.413000;-0.0548;-0.1722;-0.2849;0.337
5.418000;-0.0274;-0.1239;-0.3150;0.340
5.426000;0.0072;-0.0944;-0.3213;0.335
5.428000;-0.0011;-0.0716;-0.3350;0.343
5.433000;0.0031;-0.0291;-0.3511;0.352
5.437000;-0.0139;0.0017;-0.3410;0.341
5.442000;-0.0330;0.0210;-0.3096;0.312
5.447000;-0.0354;0.0217;-0.2018;0.206
5.453000;-0.1123;-0.0422;-0.4312;0.448
5.459000;-0.1416;-0.1197;-0.1609;0.246
5.466000;-0.1274;-0.0987;-0.2161;0.270
5.467000;-0.0944;-0.1102;-0.2694;0.306
5.499000;-0.0435;-0.1068;-0.1231;0.169
5.499000;-0.0410;-0.1103;-0.0752;0.140
5.500000;-0.0106;-0.1591;-0.0183;0.160
5.500000;-0.0043;-0.2055;0.0359;0.209
5.500000;0.0253;-0.2258;0.0423;0.231
5.501000;0.0471;-0.1988;0.0749;0.218
5.501000;0.0085;-0.2198;0.2141;0.307
5.509000;0.0148;-0.1056;-0.0465;0.116
5.511000;0.0019;-0.0851;0.1032;0.134
5.516000;0.0224;-0.0767;0.1379;0.159
5.520000;0.0356;-0.0326;0.0464;0.067
5.525000;0.0444;-0.0218;0.0506;0.071
5.531000;0.0466;0.0252;0.0759;0.093
5.535000;0.0587;-0.0061;0.1032;0.119
5.543000;0.0310;-0.0223;0.0969;0.104
5.545000;0.0401;-0.0308;0.1262;0.136
5.549000;0.0240;-0.0675;0.2026;0.215
5.555000;-0.0103;-0.0898;0.2357;0.252
5.583000;-0.0439;-0.0954;0.2614;0.282
5.584000;-0.0917;-0.1085;0.3321;0.361
5.584000;-0.1395;-0.1104;0.3668;0.408
5.584000;-0.1852;-0.0778;0.3398;0.395
5.584000;-0.1741;-0.0798;0.2872;0.345
5.586000;-0.1365;-0.0643;0.2083;0.257
5.589000;-0.0762;-0.0279;0.1178;0.143
5.594000;-0.0318;-0.0088;0.0203;0.039
5.599000;0.0469;0.0271;-0.0795;0.096
5.605000;0.0889;0.0611;-0.1099;0.154
5.609000;0.1356;0.0837;-0.1309;0.206
5.614000;0.1778;0.0855;-0.1209;0.231
5.619000;0.2182;0.0996;-0.0681;0.249
5.626000;0.2092;0.0976;-0.0441;0.235
5.629000;0.2061;0.0889;-0.0227;0.226
5.634000;0.1712;0.0971;-0.0134;0.197
5.638000;0.1549;0.0887;0.0006;0.178
5.643000;0.0901;0.0946;-0.0069;0.131
5.648000;0.0266;0.0718;0.0286;0.082
5.653000;-0.0558;0.0847;0.0306;0.106
5.661000;-0.0979;0.1117;0.0566;0.159
5.664000;-0.1551;0.1194;0.0754;0.210
5.668000;-0.1938;0.1460;0.0728;0.253
5.710000;-0.1749;0.1779;0.0722;0.260
5.710000;-0.1900;0.1997;0.0694;0.284
5.711000;-0.1795;0.2185;0.0334;0.285
5.711000;-0.1361;0.2418;0.0548;0.283
5.711000;-0.0931;0.2577;0.0427;0.277
5.712000;-0.0734;0.2377;-0.0333;0.251
5.712000;-0.0080;0.2322;-0.0137;0.233
5.712000;0.0455;0.2315;-0.0869;0.251
5.713000;0.0686;0.2263;-0.1477;0.279
5.716000;0.0568;0.2715;-0.1702;0.325
5.722000;0.0552;0.3096;-0.2139;0.380
5.730000;0.0140;0.3719;-0.1768;0.412
5.731000;0.0022;0.4178;-0.1331;0.439
5.736000;-0.0288;0.4362;-0.1073;0.450
5.745000;-0.0502;0.4285;-0.0696;0.437
5.746000;-0.0524;0.4401;-0.0081;0.443
5.751000;-0.0477;0.4494;0.0199;0.452
5.780000;-0.0148;0.4346;0.0288;0.436
5.780000;0.0176;0.4122;0.0808;0.420
5.781000;0.0615;0.3871;0.0539;0.396
5.781000;0.1259;0.3474;0.0487;0.373
5.781000;0.1387;0.2885;0.0770;0.329
5.781000;0.1738;0.2463;0.1602;0.341
5.785000;0.1856;0.2254;0.2124;0.361
5.791000;0.2031;0.1945;0.2981;0.410
5.795000;0.2220;0.1681;0.3551;0.451
5.800000;0.2453;0.1317;0.3979;0.486
5.805000;0.2736;0.1022;0.4000;0.495
5.810000;0.2786;0.0918;0.4428;0.531
5.815000;0.2729;0.0762;0.4449;0.527
5.820000;0.2472;0.0582;0.4662;0.531
5.827000;0.2784;0.0260;0.4396;0.521
5.829000;0.2684;0.0127;0.4465;0.521
5.834000;0.2410;-0.0291;0.3745;0.446
5.839000;0.2296;-0.0305;0.3551;0.424
5.846000;0.1929;-0.0364;0.3286;0.383
5.849000;0.1161;-0.0301;0.2901;0.314
5.854000;0.0681;-0.0332;0.2181;0.231
5.861000;0.0653;-0.0002;0.2250;0.234
5.864000;0.0548;-0.0126;0.2558;0.262
5.868000;0.0605;-0.0251;0.2532;0.262
5.873000;0.0341;-0.0379;0.1933;0.200
5.907000;0.0263;-0.0677;0.1861;0.200
5.908000;0.0008;-0.0857;0.1910;0.209
5.908000;-0.0469;-0.1090;0.1434;0.186
5.909000;-0.0975;-0.0920;0.1127;0.175
5.909000;-0.1436;-0.0997;0.1133;0.208
5.909000;-0.1731;-0.1053;0.0327;0.205
5.909000;-0.2049;-0.1280;-0.0453;0.246
5.912000;-0.2441;-0.1172;-0.1184;0.296
5.917000;-0.2451;-0.1112;-0.2058;0.339
5.922000;-0.2438;-0.1003;-0.2620;0.372
5.930000;-0.2499;-0.0769;-0.3254;0.417
5.932000;-0.2488;-0.1152;-0.3722;0.462
5.937000;-0.1852;-0.0955;-0.3904;0.442
5.947000;-0.1764;-0.0631;-0.3944;0.437
5.948000;-0.1365;-0.0421;-0.3818;0.408
5.954000;-0.0919;-0.0205;-0.3766;0.388
5.957000;-0.0665;0.0280;-0.3691;0.376
5.979000;-0.0314;0.0388;-0.3546;0.358
5.979000;-0.0178;0.0711;-0.3760;0.383
5.980000;-0.0018;0.1202;-0.3640;0.383
5.980000;-0.0171;0.1335;-0.3687;0.393
5.981000;-0.0424;0.1876;-0.3376;0.389
5.986000;-0.0561;0.1891;-0.3615;0.412
5.991000;-0.0585;0.1761;-0.3495;0.396
5.996000;-0.0566;0.1344;-0.3470;0.376
6.001000;-0.0843;0.0973;-0.3398;0.363
6.005000;-0.1153;0.0649;-0.3253;0.351
6.010000;-0.1379;0.0277;-0.3108;0.341
6.015000;-0.1592;0.0214;-0.2938;0.335
6.020000;-0.1626;0.0465;-0.2435;0.296
6.026000;-0.1193;0.0573;-0.1718;0.217
6.031000;-0.0602;0.0681;-0.1360;0.164
6.035000;0.0443;0.0670;-0.1002;0.128
6.040000;0.1442;0.1092;-0.0574;0.190
6.045000;0.2447;0.1132;-0.0290;0.271
6.050000;0.3270;0.1509;-0.0199;0.361
6.055000;0.3938;0.2129;0.0035;0.448
6.062000;0.4210;0.2369;0.0937;0.492
6.071000;0.4180;0.2706;0.1742;0.527
6.071000;0.4132;0.2780;0.1828;0.531
6.111000;0.4327;0.3044;0.2775;0.597
6.112000;0.4379;0.3278;0.2742;0.612
6.112000;0.4382;0.3150;0.3164;0.626
6.112000;0.4502;0.3588;0.2727;0.637
6.113000;0.4835;0.3900;0.2842;0.683
6.113000;0.5140;0.4324;0.1908;0.698
6.113000;0.5683;0.4505;0.1978;0.752
6.114000;0.6225;0.4682;0.1692;0.797
6.114000;0.6438;0.4641;0.1477;0.807
6.118000;0.6754;0.4599;0.0858;0.822
6.124000;0.6937;0.4557;0.0429;0.831
6.129000;0.6752;0.4825;-0.0166;0.830
6.134000;0.6293;0.4999;-0.0785;0.807
6.138000;0.5866;0.5512;-0.1332;0.816
6.145000;0.5277;0.6174;-0.1594;0.828
6.151000;0.5145;0.6604;-0.1929;0.859
6.152000;0.5278;0.6754;-0.1931;0.879
6.157000;0.5866;0.6863;-0.1648;0.918
6.186000;0.6740;0.6668;-0.0913;0.952
6.186000;0.7611;0.6861;-0.3096;1.070
6.187000;0.8552;0.6436;0.0937;1.074
6.187000;0.8801;0.6323;0.0042;1.084
6.187000;0.9198;0.6572;-0.0806;1.133
6.187000;0.9028;0.6464;-0.0553;1.112
6.192000;0.8387;0.7074;-0.1209;1.104
6.196000;0.7822;0.6610;-0.1531;1.035
6.201000;0.7426;0.6341;-0.1757;0.992
6.206000;0.6884;0.5933;-0.2031;0.931
6.212000;0.6310;0.5031;-0.1853;0.828
6.216000;0.5748;0.4277;-0.1365;0.729
6.220000;0.5030;0.3505;-0.0257;0.614
6.227000;0.4487;0.2998;0.1351;0.556
6.230000;0.3665;0.2635;0.3005;0.542
6.236000;0.2925;0.2554;0.3942;0.553
6.241000;0.2892;0.2537;0.4497;0.592
6.246000;0.2807;0.2918;0.5125;0.653
6.250000;0.2883;0.3265;0.6281;0.764
6.255000;0.2640;0.3793;0.6768;0.820
6.262000;0.2995;0.4715;0.6995;0.895
6.271000;0.3620;0.4812;0.6746;0.904
6.271000;0.4350;0.5043;0.6571;0.936
6.312000;0.4986;0.4929;0.5132;0.869
6.313000;0.5365;0.4474;0.4581;0.835
6.314000;0.5584;0.4396;0.4844;0.860
6.314000;0.5376;0.4238;0.4177;0.802
6.314000;0.5224;0.4667;0.3202;0.770
6.315000;0.4582;0.4320;0.2087;0.663
6.315000;0.3690;0.3916;0.0570;0.541
6.315000;0.2542;0.3696;-0.0847;0.457
6.315000;0.0990;0.3592;-0.2525;0.450
6.318000;-0.0660;0.4154;-0.4224;0.596
6.323000;-0.2337;0.4645;-0.5706;0.772
6.329000;-0.3668;0.5257;-0.6493;0.912
6.333000;-0.4920;0.5323;-0.7064;1.012
6.338000;-0.5519;0.5155;-0.7326;1.052
6.344000;-0.5346;0.4587;-0.6943;0.989
6.348000;-0.4901;0.3901;-0.5963;0.865
6.353000;-0.4354;0.3457;-0.5366;0.773
6.381000;-0.3776;0.3200;-0.5606;0.748
6.382000;-0.3416;0.3200;-0.5341;0.710
6.383000;-0.3605;0.3435;-0.5889;0.771
6.383000;-0.3572;0.3949;-0.6457;0.837
6.383000;-0.4198;0.4288;-0.7334;0.948
6.385000;-0.4850;0.4573;-0.8256;1.061
6.388000;-0.5313;0.4902;-0.9607;1.202
6.392000;-0.5880;0.5039;-1.0693;1.320
6.397000;-0.6578;0.5701;-1.1587;1.449
6.402000;-0.7296;0.6437;-1.2265;1.566
6.407000;-0.8305;0.7151;-1.1939;1.621
6.412000;-0.9180;0.8419;-1.0707;1.643
6.417000;-0.9641;0.9447;-0.8806;1.612
6.421000;-0.9759;1.0235;-0.7481;1.600
6.427000;-0.9654;1.0417;-0.5558;1.525
6.431000;-0.8933;1.0205;-0.4136;1.418
6.436000;-0.8332;0.9478;-0.3094;1.299
6.441000;-0.7533;0.8684;-0.2980;1.188
6.446000;-0.7602;0.8447;-0.3721;1.196
6.451000;-0.7844;0.8191;-0.5389;1.256
6.457000;-0.8302;0.9070;-0.7291;1.430
6.462000;-0.8954;0.9580;-1.0263;1.665
6.466000;-0.9135;0.9731;-1.3661;1.910
6.470000;-0.9186;1.0008;-1.6675;2.151
6.503000;-0.8878;0.9995;-1.9188;2.339
6.504000;-0.8435;0.9962;-2.0941;2.468
6.504000;-0.7380;0.9727;-2.1555;2.477
6.505000;-0.6284;0.9627;-2.1629;2.449
6.505000;-0.5237;0.9352;-2.1452;2.398
6.506000;-0.4237;0.9261;-2.0451;2.285
6.506000;-0.3450;0.9020;-1.8960;2.128
6.511000;-0.2800;0.8842;-1.6981;1.935
6.516000;-0.2435;0.8626;-1.4799;1.730
6.520000;-0.1542;0.8606;-1.3130;1.577
6.524000;-0.1010;0.7920;-1.1135;1.370
6.530000;-0.0692;0.7212;-0.9484;1.194
6.535000;-0.0825;0.6338;-0.7794;1.008
6.539000;-0.1759;0.5079;-0.6039;0.808
6.546000;-0.3252;0.3692;-0.3406;0.598
6.557000;-0.5589;0.2559;-0.1448;0.632
6.557000;-0.8055;0.1953;0.0724;0.832
6.578000;-1.1060;0.1227;0.2798;1.147
6.578000;-1.4231;0.0944;0.4731;1.503
6.579000;-1.6759;0.0764;0.5591;1.768
6.579000;-1.8861;0.0604;0.6195;1.986
6.582000;-1.9938;0.0369;0.5491;2.068
6.583000;-2.0740;0.0486;0.4438;2.122
6.589000;-2.0842;0.1271;0.3155;2.112
6.598000;-2.0723;0.1747;0.1807;2.087
6.598000;-2.0456;0.2897;0.0298;2.066
6.603000;-1.9128;0.4198;-0.1587;1.965
6.608000;-1.7522;0.5199;-0.3396;1.859
6.613000;-1.5157;0.5977;-0.5248;1.712
6.618000;-1.2898;0.6920;-0.6237;1.591
6.623000;-1.0270;0.7938;-0.6963;1.473
6.627000;-0.7850;0.8579;-0.6518;1.333
6.633000;-0.5752;0.9273;-0.5861;1.239
6.638000;-0.3944;0.9899;-0.5061;1.180
6.642000;-0.2179;1.0019;-0.4310;1.112
6.649000;-0.1573;1.0208;-0.3750;1.099
6.652000;-0.1289;1.0916;-0.3643;1.158
6.657000;-0.1614;1.1258;-0.3488;1.190
6.691000;-0.1831;1.2142;-0.3450;1.275
6.691000;-0.1876;1.3329;-0.3602;1.393
6.692000;-0.1824;1.4150;-0.3944;1.480
6.692000;-0.1368;1.4678;-0.4212;1.533
6.692000;-0.0488;1.4747;-0.4479;1.542
6.693000;0.0169;1.4623;-0.4410;1.527
6.693000;0.1537;1.4284;-0.4437;1.504
6.696000;0.2018;1.4015;-0.4488;1.485
6.701000;0.2287;1.3146;-0.4633;1.413
6.706000;0.2347;1.2755;-0.4372;1.369
6.712000;0.1813;1.2527;-0.3870;1.324
6.716000;0.1062;1.2631;-0.3680;1.320
6.721000;0.0332;1.2991;-0.3488;1.346
6.725000;-0.0689;1.3250;-0.3486;1.372
6.730000;-0.0707;1.3527;-0.3412;1.397
6.735000;-0.1248;1.3179;-0.2906;1.355
6.740000;-0.1591;1.2664;-0.2234;1.296
6.745000;-0.1952;1.1432;-0.0559;1.161
6.750000;-0.2213;1.0483;0.1378;1.080
6.755000;-0.2974;0.9860;0.2718;1.065
6.764000;-0.3569;0.9604;0.3557;1.085
6.768000;-0.4786;0.9309;0.3755;1.112
6.770000;-0.6081;0.9258;0.4267;1.187
6.774000;-0.7601;0.9139;0.4688;1.278
6.780000;-0.8732;0.9140;0.4804;1.352
6.802000;-0.9696;0.8975;0.4137;1.384
6.803000;-1.0087;0.9102;0.3811;1.411
6.803000;-0.9720;0.9861;0.1984;1.399
6.804000;-0.8815;1.0303;0.0281;1.356
6.806000;-0.7814;1.0966;0.0228;1.347
6.809000;-0.6091;1.1207;0.1871;1.289
6.814000;-0.4448;1.1224;0.4345;1.283
6.819000;-0.2878;1.0584;0.8440;1.384
6.823000;-0.1375;1.0192;1.3124;1.667
6.828000;-0.0126;0.9729;1.7445;1.997
6.834000;0.0384;0.9021;2.4390;2.601
6.838000;0.0332;0.8345;2.3038;2.450
6.843000;-0.0514;0.7814;2.5898;2.706
6.848000;-0.2492;0.7520;2.8115;2.921
6.853000;-0.4652;0.8467;2.6966;2.864
6.858000;-0.7070;0.9387;2.5945;2.848
6.866000;-0.8629;1.0239;2.4069;2.754
6.868000;-0.9345;1.0765;2.2416;2.656
6.872000;-0.9041;1.0831;2.1293;2.554
6.899000;-0.7832;1.0941;2.1131;2.505
6.900000;-0.5392;1.0698;2.0754;2.396
6.901000;-0.2557;1.0503;2.0283;2.298
6.901000;0.0945;0.9791;2.1199;2.337
6.901000;0.3823;0.9109;2.3668;2.565
6.903000;0.6179;0.8319;2.6776;2.871
6.907000;0.8043;0.7772;2.9739;3.177
6.912000;0.9268;0.6961;3.2340;3.435
6.917000;1.0756;0.6237;3.3363;3.560
6.921000;1.1970;0.4427;3.2595;3.500
6.926000;1.2313;0.2941;3.0518;3.304
6.931000;1.1447;0.1837;2.8036;3.034
6.936000;1.0729;0.1048;2.4863;2.710
6.941000;0.9564;0.0227;2.1212;2.327
6.946000;0.8381;-0.0719;1.8085;1.995
6.952000;0.7609;-0.1324;1.4641;1.655
6.956000;0.6426;-0.1872;1.1860;1.362
6.968000;0.5519;-0.2907;0.9213;1.113
6.969000;0.4212;-0.3678;0.7725;0.954
6.970000;0.3100;-0.4642;0.6941;0.891
6.976000;0.1988;-0.5777;0.6909;0.922
6.980000;0.1086;-0.6470;0.7678;1.010
6.985000;0.0461;-0.7016;0.8606;1.111
6.990000;-0.0007;-0.7519;0.8905;1.166
6.995000;-0.0035;-0.7755;0.9156;1.200
7.000000;0.0215;-0.7970;0.8500;1.165
7.004000;0.0528;-0.7835;0.7513;1.087
7.009000;0.1532;-0.7094;0.5410;0.905
7.014000;0.3176;-0.6296;0.2644;0.753
7.019000;0.4701;-0.5079;-0.0855;0.697
7.024000;0.6300;-0.4703;-0.4612;0.911
7.030000;0.7616;-0.4278;-0.8173;1.196
7.034000;0.8863;-0.4463;-1.0444;1.441
7.039000;0.9697;-0.4652;-1.1116;1.547
7.044000;1.0134;-0.4962;-1.0337;1.530
7.049000;1.0219;-0.5296;-0.8203;1.413
7.054000;1.0075;-0.5737;-0.5455;1.281
7.060000;1.0212;-0.6652;-0.3787;1.276
7.068000;1.0036;-0.7835;-0.1831;1.286
7.070000;0.9837;-0.8791;-0.0494;1.320
7.075000;0.9446;-0.9550;0.0607;1.345
7.079000;0.8908;-1.0142;0.0664;1.352
7.119000;0.8174;-1.0261;-0.0225;1.312
7.120000;0.7008;-1.0267;-0.1151;1.248
7.120000;0.5771;-0.9345;-0.3047;1.140
7.121000;0.4366;-0.8974;-0.6009;1.165
7.121000;0.3297;-0.8356;-0.8961;1.269
7.121000;0.2542;-0.7464;-1.1883;1.426
7.122000;0.2243;-0.6406;-1.4107;1.565
7.122000;0.2587;-0.5223;-1.5805;1.685
7.125000;0.3522;-0.4456;-1.6955;1.788
7.127000;0.4328;-0.3741;-1.8327;1.920
7.132000;0.5418;-0.3217;-1.9202;2.021
7.137000;0.6202;-0.3530;-1.9248;2.053
7.142000;0.6350;-0.3744;-1.9088;2.046
7.148000;0.6176;-0.4458;-1.8291;1.981
7.154000;0.5269;-0.4766;-1.7072;1.849
7.156000;0.4492;-0.5413;-1.5789;1.729
7.173000;0.3459;-0.5713;-1.4989;1.641
7.175000;0.2498;-0.6123;-1.3572;1.510
7.175000;0.1815;-0.6433;-1.2875;1.451
7.176000;0.1062;-0.6190;-1.2728;1.419
7.184000;0.0192;-0.5831;-1.1721;1.309
7.185000;-0.0603;-0.5162;-1.1885;1.297
7.191000;-0.1130;-0.4209;-1.3386;1.408
7.196000;-0.1119;-0.3091;-1.4383;1.475
7.201000;-0.0163;-0.2543;-1.4878;1.509
7.206000;0.0543;-0.2174;-1.5400;1.556
7.210000;0.1622;-0.1361;-1.4731;1.488
7.215000;0.2669;-0.1201;-1.3613;1.392
7.220000;0.3544;-0.0660;-1.1930;1.246
7.226000;0.4873;-0.0461;-0.9608;1.078
7.230000;0.5749;-0.0177;-0.6504;0.868
7.235000;0.6388;-0.0436;-0.3454;0.727
7.240000;0.6909;-0.0241;-0.0406;0.692
7.248000;0.6905;-0.0200;0.1805;0.714
7.250000;0.6617;-0.0101;0.3611;0.754
7.254000;0.6478;0.0333;0.4633;0.797
7.259000;0.5745;0.0815;0.4992;0.765
7.275000;0.5427;0.1367;0.4594;0.724
7.276000;0.4996;0.2157;0.3294;0.636
7.276000;0.4908;0.2877;0.1476;0.588
7.278000;0.5142;0.3367;-0.0885;0.621
7.283000;0.5390;0.4015;-0.3122;0.741
7.289000;0.5944;0.4397;-0.4686;0.875
7.293000;0.7071;0.5015;-0.6009;1.055
7.299000;0.8244;0.5351;-0.6640;1.186
7.304000;0.9533;0.5264;-0.6937;1.291
7.308000;1.0483;0.5590;-0.7069;1.382
7.313000;1.1497;0.5777;-0.6677;1.450
7.318000;1.1694;0.6040;-0.6644;1.474
7.323000;1.1716;0.6157;-0.6612;1.479
7.331000;1.1799;0.6562;-0.6579;1.502
7.333000;1.1382;0.6489;-0.6594;1.467
7.338000;1.0799;0.6270;-0.6943;1.429
7.343000;1.0263;0.6525;-0.7265;1.417
7.347000;0.9797;0.6156;-0.7850;1.398
7.352000;0.8989;0.6311;-0.7930;1.355
7.357000;0.8102;0.6008;-0.8033;1.289
7.367000;0.7415;0.5608;-0.7968;1.224
7.368000;0.6570;0.5155;-0.7591;1.129
7.372000;0.6045;0.4197;-0.7595;1.058
7.377000;0.5672;0.3356;-0.7049;0.965
7.394000;0.4853;0.2846;-0.6382;0.851
7.397000;0.3757;0.2355;-0.5787;0.729
7.398000;0.3175;0.1859;-0.5071;0.627
7.398000;0.2228;0.2049;-0.4522;0.544
7.404000;0.1444;0.1656;-0.3875;0.445
7.406000;0.1349;0.1754;-0.3417;0.407
7.411000;0.0986;0.1936;-0.3219;0.388
7.417000;0.0667;0.2153;-0.2756;0.356
7.421000;0.0703;0.2528;-0.3151;0.410
7.426000;0.1166;0.2989;-0.2826;0.428
7.432000;0.1583;0.3128;-0.3503;0.496
7.435000;0.2288;0.3829;-0.4319;0.621
7.440000;0.2658;0.4168;-0.5204;0.718
7.450000;0.3195;0.4648;-0.5730;0.804
7.451000;0.3561;0.4915;-0.5969;0.851
7.455000;0.3705;0.5232;-0.5443;0.841
7.460000;0.4201;0.5219;-0.4490;0.806
7.488000;0.4589;0.5403;-0.3109;0.774
7.489000;0.4844;0.4966;-0.1036;0.701
7.489000;0.5105;0.4219;0.1129;0.672
7.489000;0.5133;0.3495;0.3530;0.714
7.490000;0.5146;0.2860;0.5716;0.821
7.490000;0.4785;0.2120;0.8404;0.990
7.494000;0.4266;0.1680;1.0996;1.191
7.499000;0.3307;0.0938;1.2514;1.298
7.505000;0.2512;0.0895;1.4346;1.459
7.509000;0.1668;0.0185;1.7712;1.779
7.517000;0.0109;0.0701;1.7710;1.772
7.519000;-0.1034;0.1173;1.8670;1.873
7.524000;-0.1941;0.1794;1.9538;1.972
7.530000;-0.2388;0.1987;1.8690;1.895
7.535000;-0.2561;0.1710;1.7443;1.771
7.539000;-0.2649;0.0654;1.5748;1.598
7.543000;-0.2941;0.0143;1.2862;1.319
7.548000;-0.4202;-0.0465;1.0554;1.137
7.553000;-0.6071;-0.0134;0.8272;1.026
7.558000;-0.8549;0.0564;0.7186;1.118
7.566000;-1.1046;0.1992;0.5763;1.262
7.571000;-1.3171;0.3713;0.5535;1.476
7.572000;-1.4683;0.5013;0.5591;1.649
7.578000;-1.4933;0.6059;0.5574;1.705
7.598000;-1.3920;0.6611;0.5075;1.622
7.599000;-1.1695;0.6384;0.4646;1.411
7.600000;-0.8452;0.6289;0.4619;1.150
7.600000;-0.4793;0.5754;0.4301;0.864
7.602000;-0.0901;0.5813;0.4097;0.717
7.607000;0.2732;0.6370;0.4556;0.829
7.612000;0.5881;0.7024;0.4838;1.036
7.617000;0.8270;0.8088;0.4538;1.243
7.622000;0.9916;0.8540;0.4634;1.388
7.627000;1.1146;0.8696;0.5171;1.505
7.632000;1.1956;0.7791;0.5671;1.536
7.636000;1.2044;0.5730;0.7209;1.516
7.641000;1.1014;0.3061;0.9045;1.458
7.647000;0.8560;0.0258;1.1179;1.408
7.651000;0.5642;-0.2693;1.3138;1.455
7.656000;0.1854;-0.5346;1.4828;1.587
7.661000;-0.2242;-0.7404;1.6161;1.792
7.666000;-0.6751;-0.8755;1.6851;2.015
7.671000;-1.0664;-0.9462;1.7071;2.224
7.675000;-1.4306;-0.9793;1.6417;2.388
7.697000;-1.7267;-0.9345;1.5489;2.501
7.699000;-1.9392;-0.9248;1.4383;2.585
7.699000;-2.0385;-0.8903;1.3386;2.596
7.700000;-2.0563;-0.8384;1.2308;2.539
7.701000;-1.9119;-0.7833;1.0358;2.311
7.705000;-1.7413;-0.6606;0.8232;2.036
7.710000;-1.5129;-0.5775;0.5116;1.698
7.716000;-1.2142;-0.4804;0.2012;1.321
7.719000;-0.9039;-0.3563;-0.1083;0.978
7.724000;-0.5548;-0.2595;-0.4170;0.741
7.731000;-0.2571;-0.1366;-0.6632;0.724
7.735000;-0.0149;-0.1082;-0.8520;0.859
7.739000;0.2369;-0.0613;-0.9933;1.023
7.744000;0.4702;-0.0123;-1.1041;1.200
7.749000;0.6542;0.0199;-1.1581;1.330
7.754000;0.8015;-0.0074;-1.1412;1.395
7.759000;0.8692;-0.0369;-1.1155;1.415
7.766000;0.8886;-0.0520;-1.0453;1.373
7.768000;0.8742;-0.0886;-0.9569;1.299
7.774000;0.8120;-0.1568;-0.8620;1.195
7.779000;0.6925;-0.2615;-0.7821;1.077
7.797000;0.5681;-0.3390;-0.7051;0.967
7.798000;0.4337;-0.4277;-0.6809;0.914
7.799000;0.3154;-0.4968;-0.7524;0.955
7.799000;0.1888;-0.6065;-0.8119;1.031
7.805000;0.0442;-0.6707;-0.9000;1.123
7.808000;-0.0782;-0.7110;-0.9784;1.212
7.813000;-0.1768;-0.7344;-1.1475;1.374
7.818000;-0.3023;-0.7862;-1.2162;1.479
7.826000;-0.4120;-0.8376;-1.3135;1.611
7.827000;-0.4822;-0.8693;-1.3869;1.706
7.833000;-0.5733;-0.8716;-1.4008;1.747
7.838000;-0.6303;-0.8614;-1.3909;1.753
7.842000;-0.6558;-0.8290;-1.3335;1.702
7.850000;-0.6543;-0.8175;-1.3098;1.677
7.852000;-0.6351;-0.8317;-1.2361;1.620
7.857000;-0.5692;-0.8456;-1.1436;1.532
7.861000;-0.5376;-0.8543;-1.1038;1.496
7.882000;-0.5043;-0.8631;-1.0521;1.451
7.883000;-0.4810;-0.8741;-1.0172;1.425
7.883000;-0.4987;-0.8349;-0.9418;1.354
7.883000;-0.5283;-0.7794;-0.8806;1.289
7.886000;-0.5413;-0.6933;-0.8528;1.225
7.891000;-0.5259;-0.6267;-0.8632;1.189
7.896000;-0.4898;-0.5341;-0.8568;1.122
7.901000;-0.4188;-0.4609;-0.8384;1.044
7.905000;-0.3204;-0.3926;-0.8224;0.966
7.911000;-0.1942;-0.3362;-0.8279;0.914
7.916000;-0.0975;-0.2891;-0.7833;0.841
7.921000;0.0204;-0.2395;-0.7747;0.811
7.925000;0.1165;-0.1872;-0.7447;0.777
7.931000;0.1986;-0.1250;-0.6956;0.734
7.935000;0.2211;-0.0598;-0.6445;0.684
7.940000;0.2706;-0.0061;-0.5577;0.620
7.945000;0.2708;0.0767;-0.4736;0.551
7.950000;0.2390;0.0978;-0.4041;0.480
7.954000;0.2042;0.0999;-0.3539;0.421
7.960000;0.1453;0.1257;-0.3323;0.384
7.968000;0.0602;0.1395;-0.3562;0.387
7.969000;-0.0060;0.1384;-0.3847;0.409
7.975000;-0.1156;0.1299;-0.4562;0.488
7.979000;-0.2095;0.1382;-0.5061;0.565
8.006000;-0.3215;0.1487;-0.6156;0.710
8.007000;-0.4521;0.1663;-0.6628;0.819
8.008000;-0.5321;0.1432;-0.6908;0.884
8.008000;-0.6073;0.1414;-0.7092;0.944
8.008000;-0.6544;0.1490;-0.7322;0.993
8.009000;-0.6811;0.1491;-0.7503;1.024
8.014000;-0.7330;0.1824;-0.7754;1.083
8.021000;-0.7241;0.2299;-0.7718;1.083
8.024000;-0.7234;0.2866;-0.7179;1.059
8.028000;-0.7139;0.3095;-0.6114;0.990
8.034000;-0.7025;0.3464;-0.4954;0.927
8.038000;-0.6842;0.3658;-0.3984;0.872
8.043000;-0.6517;0.4035;-0.3180;0.830
8.050000;-0.5834;0.4208;-0.2899;0.776
8.055000;-0.5295;0.4583;-0.2830;0.755
8.058000;-0.4973;0.4875;-0.3690;0.788
8.078000;-0.4676;0.5231;-0.4141;0.815
8.079000;-0.4240;0.5319;-0.4732;0.829
8.079000;-0.3973;0.5902;-0.5082;0.874
8.079000;-0.3805;0.6031;-0.5743;0.916
8.083000;-0.3283;0.6518;-0.5900;0.938
8.089000;-0.3098;0.6766;-0.5986;0.955
8.093000;-0.2560;0.7354;-0.5930;0.979
8.097000;-0.2313;0.7683;-0.5469;0.971
8.102000;-0.1883;0.8399;-0.4651;0.978
8.107000;-0.1744;0.8786;-0.3693;0.969
8.112000;-0.1128;0.9081;-0.2666;0.953
8.116000;-0.1062;0.9284;-0.0948;0.939
8.122000;-0.0612;0.9440;0.0625;0.948
8.126000;-0.0784;0.9213;0.2506;0.958
8.132000;-0.0453;0.8935;0.4099;0.984
8.136000;-0.0582;0.8318;0.6145;1.036
8.141000;-0.0624;0.7312;0.8526;1.125
8.145000;-0.0610;0.6580;1.1028;1.286
8.151000;-0.0878;0.5689;1.3413;1.460
8.156000;-0.1382;0.4660;1.5705;1.644
8.161000;-0.1813;0.4518;1.8504;1.913
8.171000;-0.1812;0.5094;1.9085;1.984
8.172000;-0.2924;0.3971;2.3664;2.417
8.178000;-0.2871;0.3969;2.2726;2.325
8.181000;-0.3268;0.3466;2.2466;2.297
8.225000;-0.3437;0.2898;2.3527;2.395
8.226000;-0.3629;0.2459;2.3180;2.359
8.227000;-0.3620;0.2821;2.2670;2.313
8.227000;-0.3579;0.3006;2.1470;2.197
8.228000;-0.3178;0.3732;2.0656;2.123
8.228000;-0.2501;0.4241;1.9987;2.058
8.228000;-0.1896;0.4129;1.9581;2.010
8.229000;-0.0747;0.3664;1.9558;1.991
8.229000;0.0924;0.2656;1.9868;2.007
8.229000;0.2518;0.1702;1.9532;1.977
8.234000;0.3965;0.0968;1.9745;2.016
8.239000;0.4573;0.0619;1.9790;2.032
8.244000;0.4361;0.1278;1.9572;2.009
8.249000;0.3659;0.2132;1.9521;1.998
8.253000;0.3356;0.2970;1.9086;1.961
8.258000;0.3717;0.3456;1.8243;1.894
8.263000;0.4792;0.2923;1.7351;1.824
8.268000;0.5815;0.1733;1.5835;1.696
8.273000;0.7007;0.0156;1.3884;1.555
8.278000;0.7893;-0.1424;1.1906;1.436
8.293000;0.8364;-0.3052;0.9325;1.289
8.294000;0.8087;-0.4915;0.6689;1.159
8.294000;0.7901;-0.6170;0.4881;1.115
8.297000;0.7062;-0.8204;0.3015;1.124
8.305000;0.6163;-0.9670;0.2572;1.175
8.307000;0.4816;-1.1290;0.2689;1.256
8.312000;0.3379;-1.2755;0.3727;1.371
8.317000;0.1881;-1.3977;0.5160;1.502
8.322000;0.0108;-1.4993;0.7136;1.660
8.327000;-0.1343;-1.5431;0.9109;1.797
8.333000;-0.2357;-1.5133;1.0722;1.870
8.336000;-0.2979;-1.4538;1.1788;1.895
8.341000;-0.3019;-1.3801;1.1738;1.837
8.346000;-0.2287;-1.3071;1.1028;1.725
8.351000;-0.1025;-1.2039;0.9159;1.516
8.356000;0.0476;-1.1731;0.6514;1.343
8.361000;0.1951;-1.0450;0.3428;1.117
8.377000;0.3371;-0.9241;0.0162;0.984
8.378000;0.4043;-0.8073;-0.2902;0.948
8.378000;0.5112;-0.6152;-0.5505;0.971
8.381000;0.5930;-0.5004;-0.7863;1.105
8.388000;0.6878;-0.3522;-0.9740;1.243
8.390000;0.7501;-0.2752;-1.1640;1.412
8.395000;0.7851;-0.2261;-1.3253;1.557
8.401000;0.8169;-0.2066;-1.4654;1.690
8.405000;0.8433;-0.1901;-1.5868;1.807
8.410000;0.8547;-0.2266;-1.6490;1.871
8.416000;0.8341;-0.2558;-1.6545;1.870
8.420000;0.8268;-0.2970;-1.6535;1.872
8.424000;0.7875;-0.3619;-1.6152;1.833
8.430000;0.7355;-0.3642;-1.5396;1.745
8.436000;0.6473;-0.4165;-1.4362;1.629
8.439000;0.6143;-0.4832;-1.2477;1.472
8.444000;0.5744;-0.5403;-1.0625;1.323
8.451000;0.5161;-0.5715;-0.8640;1.157
8.454000;0.4396;-0.6175;-0.6232;0.981
8.459000;0.3735;-0.6120;-0.3330;0.790
8.463000;0.2581;-0.6153;-0.0123;0.667
8.485000;0.1344;-0.6165;0.3058;0.701
8.486000;0.0120;-0.5875;0.5257;0.788
8.486000;-0.1467;-0.5846;0.6862;0.913
8.486000;-0.3152;-0.5677;0.7709;1.008
8.490000;-0.4550;-0.5467;0.7344;1.022
8.493000;-0.5689;-0.5050;0.5747;0.953
8.498000;-0.6720;-0.4618;0.4113;0.913
8.506000;-0.7194;-0.4211;0.1366;0.845
8.508000;-0.7549;-0.3658;-0.1204;0.847
8.513000;-0.7316;-0.2904;-0.3168;0.848
8.518000;-0.6665;-0.2349;-0.5080;0.870
8.523000;-0.6152;-0.1845;-0.6509;0.914
8.527000;-0.5509;-0.1392;-0.7434;0.936
8.532000;-0.4923;-0.0865;-0.8047;0.947
8.537000;-0.4269;-0.0219;-0.8158;0.921
8.542000;-0.3476;-0.0052;-0.8578;0.926
8.547000;-0.2855;0.0832;-0.8712;0.920
8.552000;-0.2238;0.1262;-0.8343;0.873
8.557000;-0.1624;0.1740;-0.8430;0.876
8.565000;-0.0868;0.2430;-0.8252;0.865
8.596000;-0.0373;0.2640;-0.8409;0.882
8.597000;0.0437;0.3134;-0.8469;0.904
8.597000;0.1346;0.3670;-0.8505;0.936
8.598000;0.2163;0.3940;-0.8611;0.971
8.598000;0.3557;0.4230;-0.8549;1.018
8.598000;0.4544;0.4421;-0.8868;1.090
8.599000;0.5557;0.4800;-0.9641;1.212
8.607000;0.6311;0.5130;-1.0221;1.306
8.607000;0.6358;0.5270;-1.0730;1.354
8.612000;0.6633;0.5413;-1.1167;1.407
8.618000;0.6326;0.4821;-1.1488;1.397
8.621000;0.5460;0.4690;-1.1475;1.355
8.626000;0.4176;0.4282;-1.1466;1.293
8.631000;0.2905;0.3669;-1.1125;1.207
8.635000;0.1169;0.2896;-1.1337;1.176
8.641000;-0.0055;0.2488;-1.1001;1.128
8.645000;-0.1102;0.1875;-1.0238;1.047
8.653000;-0.2001;0.1674;-1.0123;1.045
8.658000;-0.2849;0.1117;-0.9268;0.976
8.660000;-0.3392;0.0848;-0.8867;0.953
8.666000;-0.4158;0.0963;-0.8060;0.912
8.693000;-0.4816;0.1051;-0.7564;0.903
8.694000;-0.5438;0.1565;-0.7186;0.915
8.694000;-0.5853;0.1427;-0.6831;0.911
8.695000;-0.6109;0.1883;-0.6450;0.908
8.695000;-0.6515;0.2071;-0.6570;0.948
8.695000;-0.6759;0.2326;-0.6665;0.977
8.700000;-0.6841;0.2507;-0.6663;0.987
8.704000;-0.7189;0.2733;-0.6803;1.027
8.709000;-0.6944;0.3291;-0.7014;1.040
8.714000;-0.7112;0.3321;-0.6842;1.041
8.719000;-0.6689;0.3899;-0.6479;1.010
8.723000;-0.6274;0.4119;-0.5829;0.950
8.729000;-0.5515;0.4435;-0.5299;0.884
8.734000;-0.4414;0.4584;-0.4388;0.773
8.740000;-0.3187;0.4661;-0.3144;0.646
8.744000;-0.1931;0.4471;-0.1899;0.523
8.748000;-0.0886;0.4683;-0.0200;0.477
8.753000;-0.0145;0.4820;0.1712;0.512
8.761000;0.0315;0.5117;0.3578;0.625
8.762000;0.0813;0.5190;0.5132;0.734
8.792000;0.1042;0.5323;0.6522;0.848
8.793000;0.1246;0.5518;0.7363;0.929
8.793000;0.1332;0.5583;0.8039;0.988
8.794000;0.1091;0.5711;0.9099;1.080
8.794000;0.1383;0.5856;1.0065;1.173
8.794000;0.1400;0.5851;1.0600;1.219
8.798000;0.1647;0.5315;1.1400;1.269
8.804000;0.1910;0.4800;1.2343;1.338
8.806000;0.1499;0.4137;1.3620;1.431
8.811000;-0.0040;0.3492;1.5352;1.574
8.818000;-0.2060;0.3722;1.6487;1.703
8.822000;-0.4489;0.4725;1.7984;1.913
8.827000;-0.6515;0.5729;1.8243;2.020
8.831000;-0.7412;0.6163;1.9823;2.204
8.838000;-0.7009;0.5719;1.8898;2.095
8.841000;-0.5398;0.5428;1.5135;1.696
8.846000;-0.2828;0.4222;1.5372;1.619
8.851000;0.0010;0.3421;1.4606;1.500
8.856000;0.2844;0.3433;1.3724;1.443
8.861000;0.4620;0.4119;1.3510;1.486
8.866000;0.5572;0.5260;1.3296;1.535
8.870000;0.5947;0.6360;1.3272;1.587
8.875000;0.5916;0.7396;1.3315;1.634
8.881000;0.5596;0.8375;1.2708;1.622
8.908000;0.5507;0.8077;1.2264;1.568
8.909000;0.5173;0.7750;1.1861;1.508
8.910000;0.4783;0.6869;1.1094;1.390
8.910000;0.4268;0.5676;1.0535;1.271
8.910000;0.2913;0.4168;0.9588;1.085
8.911000;0.1477;0.2728;0.8564;0.911
8.915000;-0.0217;0.1306;0.7632;0.775
8.920000;-0.2250;0.0405;0.7268;0.762
8.925000;-0.3795;-0.0862;0.6779;0.782
8.930000;-0.5556;-0.1969;0.6359;0.867
8.935000;-0.6271;-0.2511;0.5862;0.894
8.939000;-0.6135;-0.3516;0.5649;0.905
8.946000;-0.5172;-0.4222;0.5695;0.878
8.949000;-0.3548;-0.5132;0.6096;0.872
8.956000;-0.2523;-0.5577;0.6853;0.919
8.959000;-0.1297;-0.5799;0.7726;0.975
8.966000;-0.0789;-0.5994;0.8860;1.073
8.972000;-0.0125;-0.6096;0.9897;1.162
8.974000;-0.0010;-0.6491;1.0458;1.231
8.978000;-0.0365;-0.7089;1.0329;1.253
9.017000;-0.1163;-0.8106;0.9916;1.286
9.018000;-0.2110;-0.9091;0.8602;1.269
9.019000;-0.3543;-1.0187;0.7007;1.286
9.019000;-0.5344;-1.0965;0.5420;1.335
9.019000;-0.7087;-1.1876;0.3289;1.422
9.020000;-0.8333;-1.2085;0.1478;1.475
9.020000;-0.9501;-1.2114;-0.0255;1.540
9.020000;-1.0178;-1.1631;-0.1766;1.556
9.025000;-1.0159;-1.0871;-0.3057;1.519
9.028000;-0.9310;-1.0406;-0.3721;1.445
9.032000;-0.7926;-1.0191;-0.4285;1.360
9.038000;-0.5435;-0.9648;-0.4655;1.201
9.042000;-0.2723;-0.9138;-0.5212;1.087
9.047000;-0.0617;-0.7990;-0.5718;0.984
9.054000;0.2064;-0.6896;-0.6101;0.944
9.057000;0.3922;-0.5424;-0.6507;0.934
9.061000;0.5612;-0.4600;-0.6840;0.997
9.067000;0.6810;-0.3560;-0.7604;1.081
9.084000;0.8051;-0.2849;-0.8441;1.201
9.085000;0.8790;-0.2300;-0.9302;1.300
9.085000;0.9484;-0.2335;-1.0766;1.454
9.086000;0.9726;-0.2784;-1.1541;1.535
9.091000;0.9397;-0.3859;-1.2703;1.627
9.096000;0.8781;-0.4746;-1.3490;1.678
9.102000;0.7489;-0.5514;-1.3662;1.653
9.106000;0.6209;-0.5854;-1.3674;1.612
9.110000;0.4290;-0.6935;-1.3837;1.606
9.116000;0.2542;-0.7468;-1.3602;1.572
9.121000;0.0865;-0.8004;-1.3206;1.547
9.129000;-0.0747;-0.8665;-1.2100;1.490
9.131000;-0.1962;-0.9214;-1.1288;1.470
9.141000;-0.3477;-0.9798;-1.0289;1.463
9.142000;-0.4626;-1.0279;-0.9341;1.464
9.145000;-0.5431;-1.0824;-0.8851;1.500
9.150000;-0.6157;-1.1295;-0.8314;1.532
9.156000;-0.6729;-1.1356;-0.7397;1.513
9.159000;-0.7126;-1.1369;-0.6886;1.508
9.165000;-0.7372;-1.1360;-0.5634;1.467
9.201000;-0.7611;-1.1261;-0.4430;1.430
9.202000;-0.7861;-1.0737;-0.3870;1.386
9.202000;-0.7806;-1.0391;-0.3188;1.338
9.202000;-0.7731;-0.9674;-0.2551;1.264
9.202000;-0.7656;-0.8636;-0.2747;1.186
9.203000;-0.7440;-0.7993;-0.3105;1.135
9.203000;-0.7131;-0.6862;-0.3746;1.058
9.205000;-0.6706;-0.5838;-0.4478;0.995
9.208000;-0.5926;-0.5277;-0.5278;0.953
9.213000;-0.5102;-0.4649;-0.6243;0.931
9.219000;-0.4113;-0.4455;-0.6943;0.922
9.224000;-0.2842;-0.3976;-0.7569;0.901
9.229000;-0.2171;-0.3451;-0.8338;0.928
9.234000;-0.1357;-0.2734;-0.8963;0.947
9.238000;-0.0853;-0.1991;-0.9707;0.995
9.245000;-0.0561;-0.0768;-1.0117;1.016
9.248000;-0.0096;0.0288;-1.0814;1.082
9.256000;0.0067;0.1373;-1.0891;1.098
9.262000;0.0622;0.2319;-1.1303;1.156
9.265000;0.0920;0.3390;-1.1383;1.191
9.268000;0.1323;0.4180;-1.1203;1.203
9.308000;0.1301;0.4568;-1.0953;1.194
9.308000;0.1566;0.5201;-1.0705;1.200
9.309000;0.1612;0.5553;-1.0076;1.162
9.309000;0.1413;0.5885;-0.9092;1.092
9.309000;0.0849;0.5817;-0.8493;1.033
9.310000;0.0281;0.5752;-0.7561;0.950
9.310000;-0.0263;0.5353;-0.6940;0.877
9.310000;-0.1066;0.4764;-0.6607;0.821
9.312000;-0.2033;0.4029;-0.6083;0.757
9.317000;-0.3283;0.3489;-0.5655;0.741
9.322000;-0.4389;0.3187;-0.5276;0.757
9.327000;-0.5516;0.2886;-0.5255;0.815
9.331000;-0.6403;0.3064;-0.5186;0.879
9.336000;-0.7171;0.3193;-0.5308;0.948
9.341000;-0.7940;0.3441;-0.5574;1.029
9.345000;-0.7853;0.3930;-0.5504;1.036
9.351000;-0.7507;0.4322;-0.4766;0.989
9.356000;-0.6737;0.5101;-0.4029;0.936
9.361000;-0.6093;0.5881;-0.2625;0.887
9.366000;-0.5162;0.6421;-0.0840;0.828
9.372000;-0.4110;0.6431;0.0730;0.767
9.380000;-0.3340;0.6457;0.1941;0.752
9.380000;-0.2994;0.6092;0.3439;0.761
9.385000;-0.2763;0.6192;0.4367;0.807
9.415000;-0.3105;0.6083;0.5394;0.870
9.415000;-0.3543;0.6147;0.5852;0.920
9.416000;-0.4318;0.6118;0.6196;0.972
9.416000;-0.4953;0.6282;0.6021;1.001
9.416000;-0.5235;0.6306;0.5469;0.985
9.416000;-0.5596;0.6120;0.4876;0.962
9.419000;-0.5651;0.6015;0.4408;0.936
9.425000;-0.5598;0.6234;0.4135;0.934
9.429000;-0.5389;0.6565;0.4105;0.943
9.434000;-0.4691;0.6606;0.4553;0.929
9.440000;-0.4004;0.6645;0.5408;0.946
9.444000;-0.2968;0.6370;0.6479;0.956
9.449000;-0.2393;0.6334;0.7883;1.039
9.456000;-0.1560;0.6250;0.8999;1.107
9.458000;-0.0970;0.6164;1.0114;1.188
9.463000;-0.0145;0.6457;1.1302;1.302
9.468000;0.0440;0.6632;1.2177;1.387
9.500000;0.1476;0.6399;1.3123;1.467
9.501000;0.2344;0.6119;1.4403;1.582
9.501000;0.2879;0.5360;1.5634;1.678
9.501000;0.3373;0.4482;1.8011;1.886
9.502000;0.3084;0.3239;2.0864;2.134
9.502000;0.2611;0.2323;2.4005;2.426
9.503000;0.1575;0.2539;2.6572;2.674
9.508000;0.0529;0.3161;2.8642;2.882
9.512000;-0.0573;0.3657;3.1148;3.137
9.517000;-0.1565;0.3617;3.0746;3.100
9.525000;-0.1779;0.3519;2.9687;2.995
9.527000;-0.1916;0.2672;2.8472;2.866
9.532000;-0.1672;0.2064;2.5929;2.607
9.536000;-0.1249;0.1056;2.2585;2.264
9.543000;-0.1221;0.0616;1.9464;1.951
9.547000;-0.1372;0.1205;1.6110;1.621
9.551000;-0.1767;0.1971;1.3260;1.352
9.556000;-0.2211;0.2965;1.1007;1.161
9.561000;-0.2199;0.3911;0.8749;0.983
9.566000;-0.1356;0.3977;0.6868;0.805
9.573000;0.0003;0.3769;0.5741;0.687
9.578000;0.1684;0.3483;0.4627;0.603
9.581000;0.3047;0.2430;0.3642;0.533
9.616000;0.3861;0.1229;0.3479;0.534
9.616000;0.4088;-0.0189;0.3492;0.538
9.617000;0.4116;-0.1590;0.3561;0.567
9.617000;0.3422;-0.3192;0.3665;0.594
9.617000;0.3003;-0.5168;0.3971;0.718
9.617000;0.2128;-0.7111;0.3932;0.840
9.618000;0.1374;-0.9740;0.3765;1.053
9.626000;0.0536;-1.2049;0.4044;1.272
9.627000;0.0160;-1.4300;0.5223;1.522
9.630000;-0.0158;-1.6261;0.6659;1.757
9.635000;-0.0697;-1.7363;0.8543;1.936
9.640000;-0.0796;-1.7806;1.1235;2.107
9.645000;-0.0901;-1.7504;1.4332;2.264
9.650000;-0.0926;-1.6353;1.7118;2.369
9.656000;-0.0762;-1.5155;1.8283;2.376
9.659000;0.0063;-1.4564;1.8809;2.379
9.666000;0.1220;-1.4158;1.8557;2.337
9.669000;0.2587;-1.3318;1.7144;2.186
9.690000;0.4465;-1.2162;1.5028;1.984
9.690000;0.6511;-1.1403;1.2947;1.844
9.691000;0.8241;-1.0205;1.1239;1.727
9.691000;0.9599;-0.9401;0.9948;1.672
9.694000;1.1184;-0.8152;0.7856;1.591
9.699000;1.2158;-0.6841;0.5107;1.486
9.704000;1.2647;-0.6469;0.2035;1.435
9.709000;1.2771;-0.6144;-0.1099;1.421
9.714000;1.2601;-0.5217;-0.4797;1.446
9.718000;1.1870;-0.4515;-0.8345;1.520
9.726000;1.1007;-0.3289;-1.1411;1.619
9.727000;0.9699;-0.2392;-1.3758;1.700
9.732000;0.9120;-0.2011;-1.5915;1.845
9.739000;0.8193;-0.2116;-1.7407;1.935
9.748000;0.7588;-0.2637;-1.8782;2.043
9.749000;0.6824;-0.3233;-2.0138;2.151
9.753000;0.6024;-0.3906;-2.1093;2.228
9.758000;0.5160;-0.4268;-2.1577;2.259
9.763000;0.3805;-0.4754;-2.1375;2.223
9.767000;0.2694;-0.5025;-2.0774;2.154
9.774000;0.1128;-0.5372;-1.9750;2.050
9.778000;0.0082;-0.5298;-1.8397;1.914
9.781000;-0.0924;-0.5428;-1.7168;1.803
9.819000;-0.1578;-0.5189;-1.6350;1.723
9.820000;-0.2126;-0.5136;-1.5796;1.675
9.821000;-0.2303;-0.4431;-1.5317;1.611
9.821000;-0.2087;-0.3985;-1.5340;1.599
9.821000;-0.1713;-0.3416;-1.5794;1.625
9.822000;-0.1564;-0.2651;-1.6345;1.663
9.822000;-0.1396;-0.2094;-1.7256;1.744
9.822000;-0.1399;-0.1745;-1.7761;1.790
9.826000;-0.1807;-0.1601;-1.8007;1.817
9.830000;-0.2238;-0.1014;-1.8042;1.821
9.836000;-0.2697;-0.0582;-1.8583;1.879
9.841000;-0.3091;-0.0063;-1.8506;1.876
9.846000;-0.3637;0.0357;-1.7887;1.826
9.850000;-0.3766;0.0745;-1.6819;1.725
9.858000;-0.3743;0.0888;-1.5255;1.573
9.860000;-0.3281;0.0851;-1.3672;1.409
9.864000;-0.2764;0.0636;-1.1831;1.217
9.907000;-0.2076;0.0379;-1.0113;1.033
9.908000;-0.1623;0.0726;-0.8661;0.884
9.908000;-0.1185;0.0978;-0.6540;0.672
9.909000;-0.0997;0.1659;-0.5090;0.545
9.909000;-0.0459;0.2619;-0.4308;0.506
9.909000;-0.0401;0.4005;-0.3645;0.543
9.909000;-0.0101;0.5192;-0.2837;0.592
9.910000;0.0612;0.5968;-0.1909;0.630
9.911000;0.1911;0.6736;-0.0741;0.704
9.914000;0.3229;0.7260;0.0138;0.795
9.918000;0.4978;0.7800;0.0827;0.929
9.924000;0.5993;0.8139;0.1540;1.022
9.929000;0.6466;0.7750;0.2422;1.038
9.933000;0.6491;0.7874;0.3114;1.067
9.939000;0.6159;0.8125;0.2806;1.057
9.943000;0.4987;0.8432;0.2645;1.015
9.948000;0.3734;0.8125;0.1892;0.914
9.953000;0.2587;0.7588;0.0618;0.804
9.964000;0.1252;0.7012;-0.0314;0.713
9.964000;0.0156;0.6066;-0.1696;0.630
10.008000;-0.0876;0.5495;-0.3430;0.654
10.009000;-0.2207;0.5181;-0.4802;0.740
10.009000;-0.2855;0.5297;-0.6099;0.857
10.010000;-0.3224;0.5629;-0.6797;0.940
10.010000;-0.3288;0.5391;-0.6945;0.939
10.010000;-0.3138;0.5540;-0.7142;0.957
10.010000;-0.2702;0.5478;-0.7196;0.944
10.011000;-0.2119;0.5395;-0.6462;0.868
10.011000;-0.1367;0.5314;-0.5921;0.807
10.012000;-0.0801;0.5422;-0.5356;0.766
10.017000;-0.0213;0.5669;-0.4360;0.716
10.022000;0.0180;0.5958;-0.3507;0.692
10.026000;0.0181;0.6550;-0.2844;0.714
10.031000;0.0102;0.6845;-0.2417;0.726
10.036000;-0.0151;0.7440;-0.2154;0.775
10.042000;-0.0359;0.7809;-0.1626;0.798
10.046000;-0.0239;0.8287;-0.1454;0.842
10.051000;0.0039;0.8372;-0.1256;0.847
10.059000;0.0330;0.8234;-0.1437;0.837
10.065000;0.0658;0.7921;-0.1950;0.818
10.066000;0.0837;0.7771;-0.2150;0.811
10.070000;0.1271;0.7141;-0.2349;0.762
10.112000;0.1579;0.6416;-0.1951;0.689
10.113000;0.1707;0.5884;-0.1289;0.626
10.114000;0.1967;0.5521;-0.0295;0.587
10.114000;0.1948;0.5302;0.1081;0.575
10.114000;0.2201;0.5014;0.3196;0.634
10.115000;0.2414;0.4965;0.5117;0.753
10.115000;0.2950;0.4818;0.7729;0.957
10.116000;0.3761;0.4499;0.9623;1.127
10.116000;0.4234;0.4434;1.1732;1.324
10.120000;0.5094;0.3714;1.3484;1.488
10.126000;0.5459;0.3626;1.4329;1.576
10.131000;0.5140;0.3337;1.5774;1.692
10.134000;0.4164;0.3797;1.6170;1.712
10.140000;0.2922;0.4193;1.5878;1.668
10.144000;0.1656;0.5076;1.4968;1.589
10.149000;0.0918;0.5302;1.4016;1.501
10.154000;0.1034;0.4753;1.1897;1.285
10.159000;0.1633;0.3819;0.9710;1.056
10.164000;0.2515;0.2697;0.8051;0.886
10.168000;0.3269;0.1824;0.4982;0.623
10.207000;0.3256;0.1035;0.5785;0.672
10.208000;0.2290;0.1028;0.6343;0.682
10.208000;0.0906;0.1871;0.5821;0.618
10.208000;-0.0611;0.2605;0.7065;0.755
10.209000;-0.1746;0.3540;0.7467;0.845
10.209000;-0.2319;0.3958;0.8128;0.933
10.209000;-0.2121;0.4120;0.8189;0.941
10.209000;-0.1347;0.3645;0.8104;0.899
10.214000;-0.0496;0.3514;0.8040;0.879
10.218000;0.0540;0.3102;0.7496;0.813
10.223000;0.2099;0.2435;0.6999;0.770
10.228000;0.2968;0.2326;0.6189;0.725
10.233000;0.4174;0.1962;0.4899;0.673
10.237000;0.4804;0.1875;0.3320;0.613
10.244000;0.5290;0.1611;0.1428;0.571
10.247000;0.5680;0.0747;-0.0470;0.575
10.252000;0.6381;-0.0237;-0.1464;0.655
10.258000;0.6812;-0.1743;-0.1509;0.719
10.266000;0.6968;-0.3406;-0.1063;0.783
10.266000;0.6367;-0.4941;0.0113;0.806
10.300000;0.5704;-0.6684;0.2570;0.915
10.300000;0.4312;-0.8213;0.5208;1.064
10.304000;0.2012;-1.0130;0.8436;1.334
10.304000;-0.0831;-1.1804;1.2018;1.687
10.304000;-0.3730;-1.3196;1.5215;2.048
10.305000;-0.6984;-1.4702;1.7173;2.366
10.305000;-0.9727;-1.5854;1.8756;2.642
10.306000;-1.2054;-1.6830;1.9346;2.833
10.311000;-1.4858;-1.7371;1.7988;2.909
10.316000;-1.7469;-1.7072;1.5930;2.916
10.321000;-1.8838;-1.6626;1.3122;2.835
10.326000;-1.9739;-1.5528;0.9949;2.701
10.331000;-1.9445;-1.4322;0.6145;2.492
10.336000;-1.8065;-1.2404;0.2689;2.208
10.341000;-1.6020;-1.0432;-0.0471;1.912
10.345000;-1.3410;-0.8569;-0.3265;1.625
10.350000;-1.0000;-0.6687;-0.5815;1.336
10.358000;-0.6173;-0.5380;-0.7956;1.142
10.366000;-0.2860;-0.3996;-0.9021;1.027
10.366000;0.0180;-0.2721;-1.0519;1.087
10.369000;0.2905;-0.1525;-1.1256;1.172
10.406000;0.5273;-0.0528;-1.1328;1.251
10.406000;0.7268;0.0038;-1.1288;1.343
10.407000;0.8488;0.0340;-1.0706;1.367
10.407000;0.9680;0.0379;-1.0180;1.405
10.407000;1.0060;-0.0323;-0.9710;1.399
10.408000;1.0042;-0.1119;-0.9439;1.383
10.408000;1.0083;-0.2346;-0.8866;1.363
10.409000;0.9473;-0.3427;-0.8445;1.314
10.413000;0.8714;-0.4914;-0.8366;1.304
10.419000;0.8095;-0.6523;-0.7911;1.306
10.423000;0.6924;-0.8011;-0.7464;1.295
10.428000;0.5671;-0.9406;-0.7525;1.331
10.433000;0.4193;-1.0302;-0.6852;1.306
10.438000;0.3320;-1.0891;-0.5875;1.281
10.445000;0.2116;-1.1507;-0.4665;1.260
10.448000;0.1031;-1.1993;-0.3890;1.265
10.453000;-0.0055;-1.2394;-0.2115;1.257
10.460000;-0.0951;-1.2861;-0.0559;1.291
10.463000;-0.1678;-1.3207;0.1187;1.337
10.467000;-0.2285;-1.3367;0.2336;1.376
10.507000;-0.3034;-1.3536;0.3391;1.428
10.508000;-0.4137;-1.3698;0.4021;1.486
10.508000;-0.5092;-1.4047;0.4416;1.558
10.508000;-0.5736;-1.4275;0.4101;1.592
10.509000;-0.6695;-1.3954;0.3365;1.584
10.509000;-0.7710;-1.3708;0.2015;1.586
10.509000;-0.8543;-1.3294;0.0435;1.581
10.510000;-0.9198;-1.2947;-0.1233;1.593
10.511000;-0.9539;-1.2089;-0.2608;1.562
10.516000;-0.9521;-1.1244;-0.3667;1.518
10.521000;-0.9456;-1.0597;-0.4626;1.494
10.526000;-0.9048;-0.9619;-0.5345;1.425
10.531000;-0.8220;-0.8405;-0.5750;1.309
10.536000;-0.7251;-0.7602;-0.6035;1.212
10.541000;-0.5852;-0.6467;-0.6128;1.066
10.546000;-0.4711;-0.4929;-0.6459;0.939
10.550000;-0.3614;-0.3679;-0.6574;0.836
10.559000;-0.2462;-0.2503;-0.6977;0.781
10.561000;-0.1372;-0.1212;-0.7234;0.746
10.565000;-0.0271;-0.0450;-0.7634;0.765
10.570000;0.0839;0.0453;-0.7938;0.800
10.609000;0.1454;0.1230;-0.7906;0.813
10.609000;0.1927;0.1790;-0.8064;0.848
10.610000;0.2538;0.2608;-0.8460;0.921
10.610000;0.2903;0.3208;-0.8688;0.971
10.610000;0.3116;0.3353;-0.9034;1.013
10.610000;0.3298;0.3570;-0.9260;1.046
10.611000;0.2969;0.3957;-0.9463;1.068
10.611000;0.2393;0.4087;-0.9140;1.029
10.614000;0.1763;0.4441;-0.8964;1.016
10.619000;0.0968;0.4063;-0.7954;0.898
10.628000;0.0201;0.4151;-0.6948;0.810
10.629000;-0.0674;0.4103;-0.5754;0.710
10.634000;-0.1487;0.3393;-0.4923;0.616
10.639000;-0.2450;0.3289;-0.4287;0.593
10.644000;-0.3181;0.3450;-0.3700;0.598
10.649000;-0.3845;0.3566;-0.3188;0.614
10.654000;-0.4418;0.3900;-0.2773;0.651
10.660000;-0.4733;0.4186;-0.2168;0.668
10.665000;-0.4888;0.4687;-0.2330;0.716
10.668000;-0.4863;0.5616;-0.2467;0.783
10.702000;-0.4735;0.6375;-0.2581;0.835
10.703000;-0.4632;0.6772;-0.2478;0.857
10.703000;-0.4512;0.7548;-0.2278;0.908
10.703000;-0.4095;0.8104;-0.1863;0.927
10.704000;-0.3719;0.8321;-0.1278;0.920
10.704000;-0.3361;0.8507;-0.0453;0.916
10.704000;-0.3307;0.8685;0.0398;0.930
10.708000;-0.3243;0.8616;0.1226;0.929
10.716000;-0.3356;0.8632;0.2105;0.950
10.717000;-0.3734;0.8661;0.2747;0.982
10.726000;-0.4185;0.8508;0.3702;1.018
10.726000;-0.4393;0.8438;0.3966;1.031
10.732000;-0.4909;0.8451;0.3995;1.056
10.737000;-0.5158;0.8020;0.3693;1.023
10.746000;-0.4782;0.7483;0.2891;0.934
10.746000;-0.4743;0.7396;0.2284;0.908
10.751000;-0.4567;0.7188;0.1845;0.871
10.756000;-0.4400;0.6791;0.2004;0.834
10.761000;-0.3648;0.6421;0.2570;0.782
10.766000;-0.3099;0.5937;0.4281;0.795
10.771000;-0.2281;0.5673;0.6276;0.876
10.797000;-0.1934;0.5317;0.9489;1.105
10.798000;-0.1912;0.5128;1.2769;1.389
10.798000;-0.1397;0.4692;1.6145;1.687
10.798000;-0.1626;0.4718;1.8733;1.939
10.798000;-0.2041;0.4295;2.0295;2.084
10.800000;-0.2707;0.4276;2.1503;2.209
10.806000;-0.3405;0.4400;2.1640;2.234
10.810000;-0.4303;0.4690;2.1211;2.215
10.815000;-0.4730;0.4980;2.0142;2.128
10.820000;-0.4404;0.5225;1.8340;1.957
10.825000;-0.3760;0.5577;1.6447;1.777
10.830000;-0.2563;0.5203;1.4560;1.567
10.834000;-0.1391;0.5255;1.1387;1.262
10.840000;-0.0771;0.4544;1.2711;1.352
10.845000;-0.0297;0.4532;0.8966;1.005
10.849000;-0.0466;0.4579;0.7684;0.896
10.855000;-0.1110;0.5281;0.6353;0.834
10.861000;-0.1921;0.5741;0.5210;0.799
10.865000;-0.2277;0.6463;0.4825;0.838
10.870000;-0.2492;0.5949;0.3931;0.755
10.919000;-0.1349;0.5117;0.4173;0.674
10.919000;-0.0017;0.3276;0.4927;0.592
10.920000;0.1555;0.0926;0.5765;0.604
10.920000;0.2758;-0.1580;0.6351;0.710
10.920000;0.3071;-0.4126;0.7356;0.898
10.920000;0.2999;-0.5806;0.8542;1.075
10.920000;0.1942;-0.7106;0.9122;1.172
10.921000;0.0858;-0.8224;0.8954;1.219
10.921000;-0.0213;-0.9349;0.8901;1.291
10.921000;-0.0782;-1.0794;0.8868;1.399
10.925000;-0.1513;-1.1910;0.9262;1.516
10.927000;-0.0964;-1.3560;1.0276;1.704
10.932000;-0.0201;-1.4955;1.1504;1.887
10.938000;0.0341;-1.5861;1.2828;2.040
10.945000;0.1311;-1.5992;1.4463;2.160
10.948000;0.1982;-1.5504;1.6722;2.289
10.952000;0.2561;-1.4519;1.9364;2.434
10.957000;0.3360;-1.3432;2.1578;2.564
10.965000;0.3991;-1.2273;2.2600;2.602
10.969000;0.4670;-1.1341;2.2837;2.592
10.973000;0.5189;-1.0566;2.1740;2.472
11.006000;0.6056;-1.0308;2.0196;2.347
11.007000;0.6883;-0.9898;1.8253;2.187
11.007000;0.7162;-0.9549;1.6102;2.004
11.008000;0.7434;-0.9429;1.3387;1.798
11.008000;0.7406;-0.8292;1.0204;1.509
11.008000;0.7240;-0.7310;0.6698;1.228
11.008000;0.6878;-0.6429;0.3250;0.996
11.011000;0.6362;-0.5741;-0.0665;0.859
11.016000;0.5702;-0.4591;-0.4546;0.862
11.021000;0.5395;-0.4003;-0.7916;1.038
11.026000;0.4935;-0.3197;-1.1352;1.278
11.031000;0.4918;-0.2528;-1.4618;1.563
11.036000;0.4912;-0.2296;-1.6902;1.775
11.042000;0.5089;-0.2043;-1.9046;1.982
11.046000;0.5425;-0.1663;-2.0335;2.111
11.050000;0.5546;-0.1968;-2.1154;2.196
11.055000;0.5380;-0.2450;-2.1027;2.184
11.060000;0.5440;-0.2563;-2.0145;2.102
11.065000;0.5194;-0.2929;-1.8486;1.942
11.070000;0.4497;-0.2620;-1.6718;1.751
11.078000;0.3891;-0.2645;-1.4672;1.541
11.081000;0.3354;-0.2603;-1.2873;1.355
11.085000;0.2976;-0.3123;-1.1007;1.182
11.089000;0.2686;-0.3491;-0.9718;1.067
11.127000;0.2933;-0.4020;-0.8503;0.985
11.127000;0.2707;-0.4427;-0.7002;0.872
11.128000;0.2414;-0.4640;-0.6315;0.820
11.128000;0.2081;-0.4614;-0.5675;0.760
11.128000;0.1184;-0.4707;-0.4892;0.689
11.128000;0.0446;-0.4634;-0.4157;0.624
11.128000;-0.0011;-0.4490;-0.3828;0.590
11.129000;-0.0472;-0.4467;-0.2949;0.537
11.133000;-0.0838;-0.4420;-0.2286;0.505
11.138000;-0.1298;-0.4063;-0.2030;0.472
11.143000;-0.1441;-0.3972;-0.1438;0.446
11.148000;-0.1717;-0.3410;-0.1324;0.404
11.153000;-0.1834;-0.3044;-0.1186;0.375
11.159000;-0.2127;-0.2234;-0.1094;0.327
11.164000;-0.2526;-0.1241;-0.1669;0.327
11.168000;-0.2818;0.0317;-0.2218;0.360
11.173000;-0.2094;0.1026;-0.3123;0.390
11.179000;-0.0892;0.1968;-0.3427;0.405
11.184000;0.0473;0.2854;-0.3848;0.481
11.187000;0.1994;0.3349;-0.3788;0.543
11.229000;0.3000;0.4053;-0.3391;0.608
11.229000;0.4138;0.5131;-0.2849;0.718
11.230000;0.5152;0.6051;-0.2018;0.820
11.230000;0.5902;0.7265;-0.1493;0.948
11.231000;0.6369;0.8101;-0.1753;1.045
11.231000;0.6530;0.8774;-0.2678;1.126
11.232000;0.6344;0.9500;-0.3716;1.201
11.232000;0.6454;0.9686;-0.5035;1.268
11.232000;0.6364;1.0434;-0.6160;1.369
11.236000;0.6097;1.0315;-0.8118;1.447
11.242000;0.5824;1.0336;-0.9475;1.518
11.249000;0.5687;0.9926;-1.1021;1.589
11.251000;0.5351;0.9781;-1.1969;1.636
11.256000;0.4930;0.9166;-1.3276;1.687
11.263000;0.4541;0.9134;-1.4368;1.762
11.266000;0.4060;0.8873;-1.5270;1.812
11.271000;0.3272;0.8432;-1.5193;1.768
11.278000;0.3125;0.7958;-1.5240;1.747
11.280000;0.2710;0.7805;-1.4882;1.702
11.285000;0.2138;0.7472;-1.3595;1.566
11.290000;0.1743;0.7600;-1.2096;1.439
11.334000;0.1163;0.7348;-1.0504;1.287
11.335000;0.1117;0.7047;-0.8984;1.147
11.336000;0.1052;0.7005;-0.7489;1.031
11.336000;0.1282;0.6909;-0.6041;0.927
11.336000;0.1280;0.7282;-0.5166;0.902
11.337000;0.1691;0.7595;-0.3788;0.865
11.337000;0.1817;0.7561;-0.3196;0.841
11.338000;0.1786;0.8184;-0.2529;0.875
11.338000;0.1839;0.8845;-0.1765;0.920
11.339000;0.1810;0.9446;-0.1668;0.976
11.345000;0.1891;0.9849;-0.1258;1.011
11.349000;0.2684;1.0003;-0.1014;1.041
11.354000;0.3164;1.0175;-0.0864;1.069
11.359000;0.3717;0.9839;-0.0735;1.054
11.364000;0.4054;0.9836;-0.0224;1.064
11.369000;0.4079;0.9810;0.0190;1.063
11.373000;0.3984;0.9853;0.0773;1.066
11.379000;0.3984;0.9848;0.1546;1.074
11.383000;0.4169;0.9651;0.3059;1.095
11.388000;0.4631;0.9022;0.4428;1.107
11.425000;0.4841;0.7937;0.5629;1.087
11.426000;0.5084;0.7569;0.7259;1.166
11.426000;0.4911;0.6572;0.8866;1.208
11.426000;0.4376;0.6000;1.0306;1.270
11.427000;0.3413;0.6156;1.1987;1.390
11.427000;0.2218;0.6179;1.2906;1.448
11.427000;0.0742;0.6448;1.3160;1.467
11.427000;0.0087;0.6272;1.2821;1.427
11.432000;-0.0520;0.5699;1.2082;1.337
11.437000;-0.0013;0.4856;1.1299;1.230
11.443000;0.1125;0.3700;0.9753;1.049
11.447000;0.2348;0.2311;0.8782;0.938
11.452000;0.3325;0.1553;0.7715;0.854
11.457000;0.3444;0.1381;0.7340;0.822
11.463000;0.3001;0.1532;0.6722;0.752
11.466000;0.1806;0.2128;0.7295;0.781
11.471000;0.0670;0.2428;0.7695;0.810
11.479000;-0.0320;0.2316;0.8328;0.865
11.481000;-0.0786;0.2007;0.9695;0.993
11.486000;-0.0705;0.1071;1.0743;1.082
11.491000;-0.0412;-0.0521;1.1954;1.197
11.523000;-0.0645;-0.1650;1.2850;1.297
11.524000;-0.0445;-0.3014;1.3936;1.426
11.524000;-0.1196;-0.3609;1.3466;1.399
11.524000;-0.1848;-0.3802;1.2807;1.349
11.525000;-0.2471;-0.4264;1.3465;1.434
11.525000;-0.3044;-0.4179;1.0850;1.202
11.525000;-0.3564;-0.4337;0.8718;1.037
11.530000;-0.3793;-0.4591;0.6445;0.877
11.535000;-0.3731;-0.5103;0.4460;0.774
11.540000;-0.4235;-0.5556;0.2641;0.747
11.547000;-0.4418;-0.5895;0.0364;0.738
11.550000;-0.4665;-0.6001;-0.1295;0.771
11.555000;-0.5238;-0.6299;-0.2530;0.857
11.561000;-0.6020;-0.6593;-0.3008;0.942
11.567000;-0.6677;-0.7601;-0.2372;1.039
11.569000;-0.7619;-0.8560;-0.0621;1.148
11.575000;-0.8605;-0.9836;0.1002;1.311
11.582000;-0.9350;-1.1578;0.2835;1.515
11.584000;-1.0423;-1.2984;0.4355;1.721
11.589000;-1.1396;-1.4159;0.5399;1.896
11.594000;-1.2077;-1.5108;0.5873;2.021
11.599000;-1.3208;-1.5480;0.5732;2.114
11.603000;-1.4268;-1.5709;0.5720;2.198
11.608000;-1.5116;-1.5438;0.4951;2.217
11.641000;-1.5564;-1.4742;0.4170;2.184
11.642000;-1.5112;-1.4027;0.2181;2.073
11.642000;-1.3859;-1.3266;0.0107;1.918
11.643000;-1.2529;-1.2836;-0.2388;1.810
11.643000;-1.0528;-1.1731;-0.4586;1.642
11.644000;-0.8786;-1.0731;-0.6396;1.527
11.644000;-0.7061;-0.9475;-0.7653;1.408
11.648000;-0.5658;-0.8529;-0.8693;1.343
11.652000;-0.4023;-0.7394;-0.9683;1.283
11.657000;-0.2941;-0.6544;-1.0816;1.298
11.665000;-0.2217;-0.5520;-1.1568;1.301
11.667000;-0.1826;-0.4846;-1.2394;1.343
11.672000;-0.1622;-0.4160;-1.3462;1.418
11.701000;-0.1697;-0.3318;-1.4343;1.482
11.702000;-0.1762;-0.3296;-1.4942;1.540
11.702000;-0.1530;-0.2967;-1.5404;1.576
11.702000;-0.1387;-0.3096;-1.5777;1.614
11.703000;-0.0952;-0.3653;-1.6040;1.648
11.703000;-0.0090;-0.4470;-1.6121;1.673
11.707000;0.0909;-0.4994;-1.5710;1.651
11.712000;0.2042;-0.5272;-1.5167;1.619
11.717000;0.3187;-0.5786;-1.3941;1.543
11.721000;0.3769;-0.5886;-1.2322;1.417
11.726000;0.4413;-0.6151;-1.0187;1.269
11.731000;0.4717;-0.6989;-0.7800;1.149
11.736000;0.4617;-0.7376;-0.6116;1.064
11.741000;0.4452;-0.7868;-0.3912;0.985
11.746000;0.4227;-0.8375;-0.2312;0.966
11.751000;0.3629;-0.8753;-0.1145;0.954
11.755000;0.2874;-0.9317;-0.0173;0.975
11.764000;0.1916;-0.9734;0.0606;0.994
11.765000;0.1091;-1.0222;0.1385;1.037
11.771000;0.0350;-1.0494;0.2092;1.071
11.775000;-0.0640;-1.1032;0.2752;1.139
11.810000;-0.1805;-1.1552;0.2697;1.200
11.811000;-0.2668;-1.2060;0.2885;1.268
11.811000;-0.4071;-1.2553;0.2909;1.351
11.811000;-0.5258;-1.3132;0.3536;1.458
11.811000;-0.6622;-1.3078;0.4214;1.525
11.812000;-0.7886;-1.3066;0.4803;1.600
11.812000;-0.9031;-1.2667;0.5159;1.639
11.814000;-0.9654;-1.2437;0.5355;1.663
11.819000;-0.9802;-1.1852;0.5321;1.627
11.824000;-0.9496;-1.0819;0.4484;1.508
11.829000;-0.8616;-0.9697;0.3490;1.343
11.834000;-0.7184;-0.8290;0.2004;1.115
11.839000;-0.5795;-0.6430;0.0120;0.866
11.845000;-0.4133;-0.4754;-0.1636;0.651
11.850000;-0.2551;-0.2827;-0.3506;0.518
11.854000;-0.0847;-0.1121;-0.5564;0.574
11.858000;0.1054;0.0464;-0.7405;0.749
11.866000;0.2637;0.1480;-0.9102;0.959
11.871000;0.3879;0.2507;-1.0562;1.153
11.873000;0.4970;0.3045;-1.1571;1.296
11.880000;0.5984;0.3576;-1.2082;1.395
11.882000;0.6393;0.4247;-1.2146;1.437
11.887000;0.6701;0.4554;-1.1954;1.444
11.892000;0.6907;0.4687;-1.1457;1.417
11.923000;0.6411;0.4288;-1.0656;1.315
11.923000;0.6167;0.4144;-0.9263;1.187
11.924000;0.5525;0.3749;-0.7757;1.023
11.924000;0.4915;0.3649;-0.6446;0.889
11.924000;0.3927;0.3218;-0.4946;0.709
11.925000;0.3351;0.2883;-0.3711;0.577
11.927000;0.2659;0.2735;-0.2620;0.463
11.932000;0.2377;0.2510;-0.2340;0.417
11.937000;0.1906;0.2490;-0.1772;0.360
11.941000;0.1531;0.2795;-0.1105;0.337
11.946000;0.1371;0.2968;-0.0842;0.338
11.951000;0.1164;0.3296;0.0070;0.350
11.956000;0.0889;0.3750;0.0340;0.387
11.963000;0.0884;0.4549;-0.0270;0.464
11.966000;0.0481;0.5306;-0.0564;0.536
11.971000;0.0445;0.6118;-0.1212;0.625
11.976000;0.0318;0.6917;-0.1832;0.716
11.995000;0.0120;0.7799;-0.2520;0.820
11.996000;0.0084;0.8623;-0.3180;0.919
11.996000;0.0040;0.9250;-0.3789;1.000
11.996000;0.0176;0.9583;-0.4180;1.046
12.001000;0.0203;1.0009;-0.4594;1.101
12.005000;0.0500;1.0147;-0.4911;1.128
12.011000;0.0207;1.0381;-0.5204;1.161
12.015000;0.0425;1.0454;-0.5067;1.162
12.020000;0.0173;1.0030;-0.4239;1.089
12.025000;0.0387;1.0090;-0.3055;1.055
12.030000;0.0394;1.0299;-0.1873;1.048
12.035000;0.0268;1.0440;-0.0287;1.045
12.039000;0.0559;1.0366;0.1177;1.045
12.045000;0.0888;1.0219;0.3047;1.070
12.049000;0.0970;0.9948;0.4367;1.091
12.054000;0.1476;0.9935;0.5663;1.153
12.059000;0.1500;0.9892;0.7366;1.242
12.067000;0.1782;0.9337;0.9022;1.311
12.069000;0.2033;0.9560;1.0943;1.467
12.074000;0.2302;0.9555;1.1957;1.548
12.124000;0.2278;0.9203;1.2951;1.605
12.125000;0.2155;0.9172;1.4020;1.689
12.126000;0.1672;0.9320;1.4876;1.763
12.126000;0.0621;0.9576;1.5759;1.845
12.126000;-0.0470;1.0010;1.6287;1.912
12.126000;-0.1427;1.0859;1.6675;1.995
12.127000;-0.1897;1.1003;1.7041;2.037
12.127000;-0.2128;1.1329;1.7076;2.060
12.128000;-0.2051;1.0936;1.7232;2.051
12.128000;-0.1850;1.0282;1.7340;2.024
12.129000;-0.1829;0.9440;1.7972;2.038
12.133000;-0.1957;0.8315;1.8435;2.032
12.139000;-0.2541;0.7912;1.8919;2.066
12.146000;-0.3986;0.7630;1.9449;2.127
12.149000;-0.5266;0.8285;1.9928;2.221
12.152000;-0.5744;0.8108;1.9735;2.210
12.157000;-0.5761;0.7486;1.8823;2.106
12.165000;-0.4842;0.6327;1.7764;1.947
12.168000;-0.4456;0.4685;1.8398;1.950
12.172000;-0.3195;0.3565;1.4295;1.507
12.176000;-0.2157;0.1776;1.4849;1.511
12.205000;-0.1887;-0.0039;1.3173;1.331
12.205000;-0.2070;-0.1445;1.2185;1.244
12.205000;-0.1990;-0.2611;1.1333;1.180
12.206000;-0.2415;-0.4204;1.0402;1.148
12.206000;-0.2487;-0.5940;0.9776;1.171
12.208000;-0.2428;-0.8176;0.9072;1.245
12.212000;-0.1815;-1.0885;0.9436;1.452
12.216000;-0.1539;-1.3112;1.0224;1.670
12.221000;-0.1028;-1.5624;1.1675;1.953
12.226000;-0.0993;-1.7448;1.3359;2.200
12.231000;-0.0709;-1.8781;1.5349;2.427
12.235000;-0.0594;-1.9944;1.7768;2.672
12.241000;-0.0544;-2.0177;2.0089;2.848
12.245000;-0.0428;-2.0041;2.2435;3.009
12.251000;-0.0072;-1.9808;2.4593;3.158
12.255000;0.0112;-1.8965;2.5275;3.160
12.260000;0.0519;-1.8620;2.4867;3.107
12.265000;0.1480;-1.7371;2.3778;2.948
12.269000;0.3060;-1.6461;2.1509;2.726
12.275000;0.4601;-1.4620;1.7177;2.302
12.282000;0.6383;-1.2853;1.2409;1.897
12.286000;0.7556;-1.0861;0.7539;1.523
12.289000;0.8998;-0.9164;0.2421;1.307
12.294000;1.0297;-0.7390;-0.2708;1.296
12.333000;1.1331;-0.5817;-0.7707;1.489
12.333000;1.1643;-0.4695;-1.1865;1.727
12.334000;1.2334;-0.3586;-1.5519;2.014
12.334000;1.2782;-0.2838;-1.8672;2.281
12.334000;1.2805;-0.2851;-2.1592;2.526
12.335000;1.2256;-0.3258;-2.3492;2.670
12.335000;1.1449;-0.3915;-2.4350;2.719
12.335000;1.0071;-0.4723;-2.4551;2.695
12.338000;0.8406;-0.5775;-2.3498;2.562
12.344000;0.6161;-0.6765;-2.2100;2.392
12.349000;0.4051;-0.7291;-2.0499;2.213
12.353000;0.1977;-0.8050;-1.8813;2.056
12.358000;-0.0105;-0.8641;-1.7184;1.923
12.366000;-0.1431;-0.8805;-1.5778;1.813
12.368000;-0.2696;-0.9146;-1.4904;1.769
12.372000;-0.3394;-0.8969;-1.3390;1.647
12.378000;-0.3912;-0.9046;-1.2071;1.558
12.411000;-0.4106;-0.8833;-1.0371;1.423
12.411000;-0.4579;-0.8499;-0.8458;1.284
12.412000;-0.4379;-0.7640;-0.7264;1.142
12.412000;-0.4226;-0.6546;-0.5949;0.980
12.412000;-0.3735;-0.5581;-0.3892;0.776
12.412000;-0.3117;-0.4292;-0.2288;0.578
12.412000;-0.2582;-0.3570;-0.1206;0.457
12.417000;-0.1958;-0.2702;-0.0668;0.340
12.422000;-0.1431;-0.2069;-0.0459;0.256
12.426000;-0.0762;-0.1147;-0.0627;0.151
12.434000;0.0216;-0.0123;-0.1506;0.153
12.436000;0.1071;0.1100;-0.2308;0.277
12.441000;0.2183;0.2263;-0.3775;0.491
12.446000;0.2934;0.3061;-0.5071;0.661
12.451000;0.3852;0.3595;-0.6436;0.832
12.456000;0.4486;0.4630;-0.7060;0.956
12.461000;0.5078;0.5142;-0.7588;1.048
12.467000;0.5795;0.5611;-0.8237;1.153
12.471000;0.6467;0.5945;-0.8123;1.196
12.476000;0.6997;0.6884;-0.7510;1.236
12.482000;0.7122;0.7356;-0.5922;1.183
12.486000;0.7798;0.7501;-0.3932;1.151
12.490000;0.7834;0.7581;-0.1779;1.105
12.495000;0.8118;0.7541;0.0204;1.108
12.534000;0.7867;0.7135;0.2473;1.090
12.534000;0.7301;0.6887;0.3690;1.069
12.534000;0.6420;0.6480;0.4647;1.024
12.535000;0.5295;0.6153;0.4986;0.953
12.535000;0.4094;0.5708;0.4733;0.847
12.535000;0.2817;0.5697;0.4462;0.777
12.536000;0.1251;0.5234;0.2979;0.615
12.536000;-0.0035;0.4944;0.1097;0.506
12.540000;-0.1234;0.5165;-0.1185;0.544
12.544000;-0.2013;0.4778;-0.3700;0.637
12.549000;-0.2351;0.4531;-0.5803;0.773
12.554000;-0.2567;0.4187;-0.8286;0.963
12.559000;-0.2687;0.3895;-0.9882;1.096
12.566000;-0.2578;0.3421;-1.1143;1.194
12.569000;-0.2764;0.3769;-1.2143;1.301
12.573000;-0.2654;0.3747;-1.2260;1.309
12.578000;-0.2531;0.3688;-1.1520;1.236
12.605000;-0.2426;0.3973;-0.9970;1.100
12.606000;-0.2172;0.4049;-0.8042;0.926
12.606000;-0.2392;0.3814;-0.6164;0.763
12.607000;-0.2293;0.4270;-0.3976;0.627
12.607000;-0.2352;0.4333;-0.1860;0.527
12.608000;-0.2492;0.4571;-0.0506;0.523
12.613000;-0.2257;0.4623;0.0589;0.518
12.618000;-0.2480;0.4820;0.0996;0.551
12.625000;-0.2514;0.5284;0.0836;0.591
12.627000;-0.2358;0.5844;0.0205;0.631
12.632000;-0.2176;0.6170;-0.0635;0.657
12.637000;-0.1681;0.6526;-0.1921;0.701
12.642000;-0.1038;0.6150;-0.3010;0.693
12.647000;-0.0776;0.6147;-0.4524;0.767
12.652000;-0.0204;0.6689;-0.5628;0.874
12.657000;0.0626;0.6942;-0.6897;0.981
12.662000;0.1402;0.7265;-0.7542;1.057
12.668000;0.2096;0.7497;-0.8283;1.137
12.671000;0.2586;0.7327;-0.8714;1.168
12.676000;0.2968;0.7406;-0.8836;1.191
12.728000;0.3624;0.7420;-0.8769;1.205
12.730000;0.3982;0.7252;-0.8060;1.155
12.730000;0.4592;0.7092;-0.6827;1.086
12.730000;0.5193;0.6918;-0.5170;1.008
12.731000;0.5526;0.6560;-0.3636;0.932
12.731000;0.6195;0.6494;-0.2009;0.920
12.731000;0.6679;0.5904;-0.0123;0.892
12.732000;0.6834;0.4862;0.1881;0.860
12.732000;0.6685;0.4081;0.3501;0.858
12.732000;0.6069;0.3417;0.5001;0.857
12.733000;0.5111;0.3009;0.5714;0.824
12.735000;0.3096;0.3551;0.6213;0.780
12.741000;0.1273;0.4130;0.5903;0.732
12.746000;-0.0336;0.4775;0.4735;0.673
12.751000;-0.1112;0.4793;0.2973;0.575
12.755000;-0.1301;0.4716;0.0903;0.498
12.760000;-0.0721;0.3881;-0.1645;0.428
12.770000;0.0233;0.3492;-0.3310;0.482
12.772000;0.1460;0.2908;-0.4430;0.550
12.775000;0.2336;0.2444;-0.4912;0.596
12.779000;0.2602;0.2173;-0.4519;0.565
12.845000;0.2482;0.2618;-0.3513;0.504
12.847000;0.1839;0.3130;-0.2181;0.424
12.847000;0.1242;0.3517;-0.0451;0.376
12.848000;0.0711;0.3801;0.1700;0.422
12.848000;0.0384;0.3524;0.3294;0.484
12.848000;0.0498;0.2520;0.4188;0.491
12.849000;0.0336;0.1144;0.5220;0.535
12.849000;0.0209;-0.0293;0.5531;0.554
12.849000;-0.0168;-0.1841;0.5433;0.574
12.849000;-0.0842;-0.2970;0.5020;0.589
12.850000;-0.2197;-0.3275;0.2453;0.464
12.850000;-0.3304;-0.4306;0.5500;0.773
12.850000;-0.4259;-0.5106;0.4547;0.806
12.850000;-0.5092;-0.5480;0.3994;0.848
12.855000;-0.5511;-0.6385;0.5300;0.996
12.857000;-0.5634;-0.7177;0.5236;1.052
12.862000;-0.4977;-0.7931;0.5813;1.102
12.867000;-0.4351;-0.8742;0.6243;1.159
12.872000;-0.4013;-0.9737;0.7267;1.280
12.877000;-0.3940;-1.0408;0.8693;1.412
12.885000;-0.4029;-1.1003;1.0117;1.548
12.887000;-0.4563;-1.1143;1.1468;1.663
12.891000;-0.5152;-1.1003;1.2653;1.754
12.923000;-0.6151;-1.0752;1.3266;1.815
12.924000;-0.7313;-1.0419;1.4026;1.894
12.924000;-0.8514;-1.0368;1.4004;1.939
12.924000;-0.9492;-1.0126;1.3679;1.949
12.924000;-1.0612;-1.0386;1.3314;1.994
12.924000;-1.1498;-1.0243;1.1717;1.935
12.926000;-1.2162;-1.0272;0.9533;1.856
12.931000;-1.2374;-0.9683;0.7624;1.746
12.936000;-1.2259;-0.9046;0.5319;1.614
12.941000;-1.1682;-0.8311;0.3741;1.482
12.946000;-1.0891;-0.6831;0.1669;1.296
12.951000;-0.9771;-0.5795;0.0321;1.136
12.955000;-0.8250;-0.4719;-0.0617;0.952
12.960000;-0.6228;-0.3818;-0.1265;0.741
12.966000;-0.3796;-0.3232;-0.1862;0.532
12.970000;-0.1544;-0.2649;-0.2434;0.392
12.974000;0.0459;-0.2161;-0.3197;0.389
12.999000;0.2339;-0.1766;-0.3482;0.455
12.999000;0.3625;-0.1006;-0.4007;0.550
13.000000;0.4562;-0.0215;-0.4391;0.634
13.000000;0.4988;0.0393;-0.4778;0.692
13.000000;0.5311;0.0965;-0.5336;0.759
13.004000;0.5367;0.0930;-0.5612;0.782
13.009000;0.5321;0.0316;-0.6539;0.844
13.014000;0.5392;-0.0397;-0.6970;0.882
13.019000;0.4956;-0.1539;-0.7552;0.916
13.023000;0.4564;-0.3255;-0.7544;0.940
13.029000;0.3687;-0.4659;-0.7568;0.962
13.034000;0.2204;-0.6276;-0.6931;0.961
13.039000;0.0903;-0.7298;-0.6086;0.955
13.044000;-0.0532;-0.8229;-0.4914;0.960
13.051000;-0.1695;-0.8883;-0.3985;0.988
13.054000;-0.2686;-0.9601;-0.2414;1.026
13.058000;-0.3508;-1.0480;-0.1397;1.114
13.068000;-0.4571;-1.0886;-0.1047;1.185
13.068000;-0.5468;-1.1177;-0.0265;1.245
13.075000;-0.6533;-1.1190;-0.0365;1.296
13.078000;-0.7360;-1.0879;-0.0318;1.314
13.130000;-0.7899;-1.0632;0.0092;1.325
13.131000;-0.8251;-1.0043;-0.0066;1.300
13.131000;-0.8848;-0.9497;-0.0934;1.301
13.131000;-0.9066;-0.9067;-0.2274;1.302
13.132000;-0.9411;-0.8464;-0.3845;1.323
13.132000;-0.9096;-0.7972;-0.5935;1.347
13.132000;-0.9037;-0.7443;-0.7422;1.386
13.132000;-0.8450;-0.6080;-0.9026;1.378
13.133000;-0.8031;-0.5124;-1.0341;1.406
13.133000;-0.7013;-0.3874;-1.1394;1.393
13.133000;-0.5875;-0.3191;-1.1756;1.352
13.137000;-0.4706;-0.2613;-1.1738;1.291
13.142000;-0.3333;-0.1928;-1.1103;1.175
13.146000;-0.2084;-0.1353;-1.0209;1.051
13.151000;-0.1094;-0.0983;-0.8936;0.906
13.157000;-0.0029;-0.0152;-0.7644;0.765
13.162000;0.0853;0.0225;-0.6520;0.658
13.167000;0.1317;0.0482;-0.5374;0.555
13.172000;0.1797;0.0689;-0.4826;0.520
13.176000;0.2051;0.0984;-0.4062;0.466
13.219000;0.1792;0.0984;-0.3894;0.440
13.220000;0.2093;0.1381;-0.3628;0.441
13.220000;0.1464;0.1648;-0.4172;0.472
13.220000;0.0812;0.2286;-0.4138;0.480
13.221000;0.0204;0.2604;-0.4770;0.544
13.221000;-0.0124;0.3319;-0.5448;0.638
13.221000;-0.0271;0.3764;-0.5620;0.677
13.221000;-0.0193;0.3563;-0.5888;0.688
13.222000;0.0278;0.3673;-0.5390;0.653
13.226000;0.0714;0.3903;-0.4749;0.619
13.231000;0.1217;0.3919;-0.4229;0.589
13.235000;0.1651;0.3981;-0.3375;0.547
13.240000;0.1400;0.4397;-0.3046;0.553
13.244000;0.0926;0.4738;-0.2861;0.561
13.251000;0.0275;0.5433;-0.3057;0.624
13.254000;-0.0406;0.5623;-0.3778;0.679
13.259000;-0.0975;0.5907;-0.4570;0.753
13.268000;-0.2171;0.6143;-0.5577;0.858
13.269000;-0.2512;0.6141;-0.6702;0.943
13.274000;-0.2961;0.6190;-0.7516;1.018
13.279000;-0.3238;0.6434;-0.8474;1.112
13.319000;-0.2754;0.6517;-0.8476;1.104
13.320000;-0.1996;0.6367;-0.8074;1.047
13.320000;-0.1090;0.6295;-0.7578;0.991
13.320000;0.0370;0.6369;-0.6247;0.893
13.321000;0.1807;0.6396;-0.4343;0.794
13.321000;0.3029;0.6323;-0.2249;0.736
13.321000;0.3780;0.6718;-0.0203;0.771
13.321000;0.3852;0.7409;0.1535;0.849
13.323000;0.3686;0.8107;0.2773;0.933
13.328000;0.3285;0.8690;0.3321;0.987
13.333000;0.2581;0.9374;0.3611;1.037
13.339000;0.1953;0.9348;0.3809;1.028
13.344000;0.0781;0.9121;0.3580;0.983
13.347000;-0.0267;0.8763;0.3689;0.951
13.352000;-0.1190;0.8017;0.3560;0.885
13.357000;-0.2280;0.7625;0.3673;0.876
13.362000;-0.3153;0.7208;0.4287;0.896
13.369000;-0.4047;0.6192;0.4758;0.880
13.373000;-0.5061;0.5893;0.5635;0.960
13.378000;-0.6071;0.5209;0.5938;0.996
13.417000;-0.6844;0.4456;0.6145;1.022
13.418000;-0.7573;0.3609;0.6447;1.058
13.418000;-0.8354;0.2745;0.7226;1.138
13.418000;-0.8683;0.1887;0.8360;1.220
13.419000;-0.8418;0.1535;1.0449;1.351
13.419000;-0.8826;0.1087;1.2511;1.535
13.419000;-0.9305;0.1016;1.5242;1.789
13.420000;-0.9587;0.1097;1.7376;1.988
13.421000;-0.9860;0.1826;1.9466;2.190
13.426000;-0.9528;0.2093;2.1347;2.347
13.431000;-0.8791;0.2374;2.2328;2.411
13.436000;-0.7534;0.2068;2.2722;2.403
13.440000;-0.6097;0.1700;2.3009;2.386
13.446000;-0.4866;0.1247;2.2471;2.303
13.450000;-0.3559;0.1188;2.1875;2.219
13.455000;-0.2743;0.1336;2.0957;2.118
13.460000;-0.2388;0.1642;1.9647;1.986
13.464000;-0.2366;0.1997;1.7701;1.797
13.470000;-0.2817;0.2737;1.4405;1.493
13.475000;-0.3451;0.3523;1.0804;1.188
13.480000;-0.3436;0.3884;0.7232;0.890
13.531000;-0.3009;0.3649;0.4327;0.641
13.533000;-0.2532;0.3301;0.1106;0.430
13.533000;-0.2190;0.2521;-0.1290;0.358
13.533000;-0.2123;0.1550;-0.1906;0.325
13.534000;-0.2495;0.0565;-0.3329;0.420
13.534000;-0.2869;0.0401;-0.6181;0.683
13.534000;-0.3225;-0.0373;-0.5562;0.644
13.535000;-0.3684;-0.0754;-0.5109;0.634
13.535000;-0.3202;-0.0769;-0.4365;0.547
13.535000;-0.2602;-0.1376;-0.2853;0.410
13.536000;-0.1607;-0.2437;-0.0906;0.306
13.540000;-0.0485;-0.4005;0.1288;0.423
13.543000;0.1283;-0.5632;0.4257;0.718
13.548000;0.2717;-0.7087;0.7500;1.067
13.554000;0.3652;-0.8266;1.0618;1.394
13.558000;0.4287;-0.9037;1.3684;1.695
13.562000;0.4751;-0.9392;1.5988;1.914
13.569000;0.4717;-0.9361;1.7820;2.067
13.573000;0.5073;-0.9148;1.8011;2.083
13.578000;0.5558;-0.8537;1.7591;2.033
13.612000;0.6294;-0.8368;1.6872;1.986
13.613000;0.7092;-0.8257;1.5759;1.915
13.613000;0.8429;-0.7486;1.4467;1.834
13.613000;0.9874;-0.6582;1.1419;1.647
13.614000;1.1403;-0.5465;0.8023;1.498
13.614000;1.2801;-0.3843;0.4614;1.414
13.614000;1.3878;-0.2470;0.1139;1.414
13.624000;1.4540;-0.1265;-0.2237;1.477
13.625000;1.5341;-0.0625;-0.5660;1.636
13.627000;1.5762;-0.0375;-0.8919;1.811
13.631000;1.5586;-0.0771;-1.0964;1.907
13.638000;1.5246;-0.0969;-1.2897;1.999
13.641000;1.3971;-0.1681;-1.3671;1.962
13.646000;1.2306;-0.2356;-1.3858;1.868
13.653000;1.0149;-0.2971;-1.3316;1.700
13.656000;0.8215;-0.3672;-1.2020;1.501
13.661000;0.6405;-0.4682;-1.0327;1.302
13.670000;0.4692;-0.5671;-0.9311;1.187
13.671000;0.3470;-0.6477;-0.8659;1.136
13.676000;0.2452;-0.7386;-0.7676;1.093
13.681000;0.1727;-0.8193;-0.6910;1.086
13.732000;0.0883;-0.9061;-0.5907;1.085
13.733000;0.0439;-0.9400;-0.4810;1.057
13.733000;0.0060;-0.9688;-0.3976;1.047
13.733000;-0.0755;-0.9876;-0.2808;1.030
13.734000;-0.1099;-0.9565;-0.1687;0.977
13.734000;-0.1277;-0.8992;-0.0399;0.909
13.735000;-0.1502;-0.8021;0.1608;0.832
13.735000;-0.1842;-0.6820;0.3066;0.770
13.735000;-0.2409;-0.5632;0.4335;0.750
13.736000;-0.2499;-0.4604;0.5441;0.755
13.736000;-0.2410;-0.3792;0.6027;0.752
13.739000;-0.1854;-0.2884;0.6403;0.726
13.744000;-0.1734;-0.2410;0.6070;0.676
13.749000;-0.0718;-0.1866;0.5266;0.563
13.754000;-0.0337;-0.1634;0.4255;0.457
13.759000;0.0506;-0.0873;0.3012;0.318
13.765000;0.1114;-0.0108;0.1632;0.198
13.770000;0.1917;0.0737;0.0163;0.206
13.773000;0.2457;0.1117;-0.1206;0.296
13.778000;0.3329;0.1417;-0.2523;0.441
13.787000;0.3889;0.1950;-0.3622;0.566
13.788000;0.4018;0.1838;-0.4672;0.643
13.793000;0.4245;0.1895;-0.5363;0.710
13.797000;0.4141;0.2336;-0.5146;0.701
13.833000;0.3923;0.2781;-0.5025;0.695
13.834000;0.3615;0.3089;-0.4214;0.635
13.834000;0.3053;0.3256;-0.3524;0.569
13.835000;0.2483;0.3348;-0.3050;0.516
13.835000;0.2341;0.3055;-0.2815;0.477
13.835000;0.1868;0.2300;-0.3343;0.447
13.835000;0.1087;0.1992;-0.4202;0.478
13.837000;0.0476;0.1534;-0.5442;0.567
13.844000;-0.0567;0.1022;-0.7060;0.716
13.847000;-0.1206;0.0794;-0.8485;0.861
13.852000;-0.1719;0.1111;-1.0502;1.070
13.856000;-0.2591;0.1427;-1.2135;1.249
13.861000;-0.3136;0.1244;-1.3216;1.364
13.869000;-0.3622;0.1563;-1.4176;1.472
13.871000;-0.3914;0.1719;-1.4801;1.541
13.876000;-0.3704;0.1810;-1.5356;1.590
13.881000;-0.3215;0.1864;-1.5745;1.618
13.922000;-0.2351;0.1953;-1.5396;1.570
13.923000;-0.1925;0.1963;-1.4312;1.457
13.923000;-0.1211;0.2105;-1.3089;1.331
13.923000;-0.0344;0.2138;-1.1106;1.131
13.923000;0.0492;0.2491;-0.9151;0.950
13.924000;0.1420;0.3039;-0.7750;0.845
13.924000;0.2065;0.3105;-0.6111;0.716
13.924000;0.2696;0.3551;-0.4808;0.656
13.925000;0.3170;0.4085;-0.4006;0.654
13.930000;0.3155;0.4560;-0.3776;0.671
13.935000;0.3081;0.5240;-0.3567;0.705
13.940000;0.2896;0.5499;-0.3163;0.697
13.945000;0.3098;0.5722;-0.3115;0.721
13.950000;0.3055;0.6196;-0.3064;0.756
13.954000;0.3361;0.6537;-0.3057;0.796
13.960000;0.3819;0.6485;-0.3765;0.842
13.965000;0.3902;0.6784;-0.4039;0.881
13.970000;0.4400;0.6526;-0.4168;0.891
13.975000;0.4715;0.6214;-0.3888;0.872
13.980000;0.4418;0.6567;-0.3680;0.873
13.988000;0.4516;0.6966;-0.3758;0.911
13.991000;0.4297;0.7457;-0.3716;0.937
13.995000;0.4293;0.7758;-0.3483;0.953
13.999000;0.4436;0.7913;-0.3393;0.969
14.053000;0.4820;0.7952;-0.3280;0.986
14.054000;0.5034;0.7898;-0.3048;0.985
14.055000;0.5817;0.7944;-0.2388;1.013
14.055000;0.6814;0.8091;-0.1276;1.065
14.055000;0.7548;0.7908;0.0120;1.093
14.056000;0.8451;0.8178;0.1658;1.188
14.056000;0.8876;0.8209;0.3290;1.253
14.056000;0.9444;0.8044;0.4658;1.325
14.057000;0.9129;0.8088;0.6695;1.391
14.057000;0.9079;0.8625;0.8087;1.491
14.057000;0.9058;0.9221;0.9697;1.616
14.059000;0.8927;0.9514;1.0926;1.702
14.065000;0.8928;0.9666;1.1682;1.760
14.068000;0.9640;0.9676;1.1511;1.786
14.075000;0.9771;0.8950;1.1107;1.729
14.077000;0.9729;0.8515;0.9970;1.633
14.082000;0.9253;0.8020;0.9005;1.520
14.088000;0.7698;0.7872;0.8022;1.362
14.092000;0.5947;0.8003;0.6803;1.207
14.096000;0.3759;0.8081;0.6019;1.075
14.152000;0.1535;0.8085;0.5165;0.972
14.153000;-0.0183;0.7704;0.5078;0.923
14.153000;-0.0980;0.7207;0.4728;0.868
14.154000;-0.1320;0.6595;0.4235;0.795
14.154000;-0.1380;0.5798;0.4457;0.744
14.154000;-0.1470;0.5103;0.5037;0.732
14.155000;-0.1535;0.4729;0.5637;0.752
14.155000;-0.1684;0.5077;0.6569;0.847
14.155000;-0.2099;0.5789;0.7547;0.974
14.155000;-0.1964;0.6310;0.7973;1.036
14.156000;-0.1805;0.6884;0.8350;1.097
14.156000;-0.1384;0.7272;0.8390;1.119
14.161000;-0.0821;0.6957;0.8067;1.068
14.165000;-0.0115;0.6054;0.8124;1.013
14.171000;0.0574;0.5357;0.6073;0.812
14.175000;0.0697;0.4506;0.7104;0.844
14.180000;0.0644;0.3503;0.6433;0.735
14.188000;0.0294;0.3184;0.3989;0.511
14.192000;0.0029;0.2645;0.3072;0.405
14.195000;-0.0757;0.1893;0.1573;0.258
14.199000;-0.1545;0.1386;0.0808;0.223
14.243000;-0.1860;0.0076;0.0750;0.201
14.243000;-0.1945;-0.1561;0.1254;0.279
14.244000;-0.1726;-0.3212;0.2369;0.435
14.244000;-0.1256;-0.5048;0.4238;0.671
14.244000;-0.0871;-0.6649;0.5931;0.895
14.244000;-0.0593;-0.8472;0.8334;1.190
14.245000;-0.0638;-0.9717;1.0782;1.453
14.245000;-0.0983;-1.1156;1.3084;1.722
14.245000;-0.1868;-1.2060;1.4983;1.932
14.249000;-0.2935;-1.2818;1.7055;2.154
14.255000;-0.4610;-1.3176;1.7963;2.275
14.258000;-0.6121;-1.3686;1.8570;2.387
14.263000;-0.7551;-1.3997;1.8042;2.405
14.271000;-0.8513;-1.4371;1.6763;2.366
14.273000;-0.9289;-1.5045;1.4279;2.273
14.278000;-0.9973;-1.4697;1.1355;2.108
14.283000;-1.0857;-1.4278;0.7916;1.961
14.289000;-1.1033;-1.3707;0.5060;1.831
14.293000;-1.1386;-1.2783;0.2281;1.727
14.297000;-1.0701;-1.1575;-0.0230;1.577
14.303000;-1.0008;-1.0292;-0.2668;1.460
14.308000;-0.8622;-0.9845;-0.4387;1.380
14.312000;-0.7409;-0.8886;-0.6346;1.320
14.317000;-0.6010;-0.8324;-0.7779;1.288
14.367000;-0.4479;-0.8037;-0.9168;1.299
14.368000;-0.3060;-0.7762;-0.9961;1.299
14.369000;-0.1923;-0.7353;-1.0544;1.300
14.369000;-0.1071;-0.7025;-1.1035;1.312
14.369000;-0.0574;-0.5939;-1.1293;1.277
14.370000;-0.0074;-0.5482;-1.1221;1.249
14.370000;0.0125;-0.4890;-1.1228;1.225
14.370000;0.0747;-0.4735;-1.0810;1.182
14.371000;0.1631;-0.4634;-0.9514;1.071
14.371000;0.2019;-0.4683;-0.8560;0.996
14.372000;0.2469;-0.4980;-0.7804;0.958
14.376000;0.2511;-0.5145;-0.7411;0.936
14.380000;0.2363;-0.5253;-0.7093;0.914
14.386000;0.2312;-0.5136;-0.7448;0.934
14.390000;0.1830;-0.5129;-0.7806;0.952
14.396000;0.1029;-0.5180;-0.8143;0.971
14.401000;0.0239;-0.5337;-0.8580;1.011
14.406000;-0.0518;-0.5505;-0.8399;1.006
14.411000;-0.1555;-0.5826;-0.8534;1.045
14.415000;-0.2514;-0.6588;-0.8481;1.103
14.453000;-0.3680;-0.7533;-0.8764;1.213
14.453000;-0.5052;-0.8398;-0.8977;1.329
14.453000;-0.6321;-0.8804;-0.9096;1.415
14.454000;-0.7729;-0.9541;-0.9477;1.551
14.454000;-0.9071;-0.9774;-0.9499;1.637
14.454000;-0.9972;-0.9789;-0.9498;1.690
14.454000;-1.0826;-0.9781;-0.8995;1.714
14.454000;-1.1304;-0.9317;-0.7823;1.661
14.459000;-1.1406;-0.8451;-0.6795;1.574
14.464000;-1.0343;-0.8166;-0.5312;1.421
14.469000;-0.9351;-0.7532;-0.4354;1.277
14.474000;-0.7708;-0.6696;-0.2820;1.059
14.479000;-0.5675;-0.5921;-0.1761;0.839
14.483000;-0.3416;-0.4616;-0.1487;0.593
14.491000;-0.1428;-0.3589;-0.1448;0.412
14.496000;0.0320;-0.2220;-0.2025;0.302
14.498000;0.1783;-0.0865;-0.2334;0.306
14.534000;0.2730;-0.0098;-0.3524;0.446
14.534000;0.3214;0.1019;-0.4782;0.585
14.535000;0.3502;0.1601;-0.5676;0.686
14.535000;0.3811;0.2105;-0.7214;0.843
14.535000;0.3686;0.2628;-0.8486;0.962
14.535000;0.3245;0.3009;-1.0234;1.115
14.535000;0.2680;0.2914;-1.1694;1.235
14.538000;0.1940;0.2800;-1.3297;1.373
14.542000;0.0544;0.2887;-1.4566;1.486
14.548000;-0.0273;0.2937;-1.5311;1.559
14.552000;-0.0780;0.2956;-1.4793;1.511
14.556000;-0.1723;0.2847;-1.4352;1.473
14.562000;-0.2365;0.3066;-1.3032;1.360
14.566000;-0.2871;0.3059;-1.1287;1.204
14.571000;-0.3334;0.3059;-0.9474;1.050
14.576000;-0.3752;0.3158;-0.7473;0.894
14.614000;-0.4027;0.3253;-0.5760;0.774
14.616000;-0.4161;0.3414;-0.3928;0.666
14.616000;-0.4486;0.3611;-0.2620;0.633
14.616000;-0.4856;0.4296;-0.2027;0.679
14.617000;-0.4837;0.4798;-0.1861;0.706
14.617000;-0.4812;0.5454;-0.1787;0.749
14.617000;-0.5041;0.5952;-0.2020;0.806
14.618000;-0.5357;0.6223;-0.2609;0.862
14.621000;-0.5998;0.6652;-0.3026;0.945
14.633000;-0.6657;0.6903;-0.3751;1.030
14.634000;-0.7528;0.6838;-0.4043;1.094
14.636000;-0.7996;0.7295;-0.3713;1.144
14.640000;-0.8899;0.7700;-0.3716;1.234
14.645000;-0.9500;0.8006;-0.3456;1.290
14.650000;-1.0062;0.7568;-0.2861;1.291
14.654000;-1.0347;0.7365;-0.2433;1.293
14.660000;-1.1048;0.6824;-0.2077;1.315
14.664000;-1.1473;0.6753;-0.1216;1.337
14.669000;-1.1863;0.6843;-0.1192;1.375
14.675000;-1.2169;0.6688;-0.0473;1.389
14.679000;-1.2055;0.6668;-0.0326;1.378
14.684000;-1.1809;0.6902;-0.0344;1.368
14.689000;-1.1262;0.7394;0.0141;1.347
14.694000;-1.0054;0.7904;0.0196;1.279
14.699000;-0.8878;0.8602;0.0013;1.236
14.734000;-0.7113;0.9418;0.0213;1.180
14.736000;-0.5306;1.0042;0.0604;1.137
14.736000;-0.3645;1.0834;0.1352;1.151
14.736000;-0.2392;1.1220;0.2458;1.173
14.736000;-0.1522;1.1774;0.4088;1.256
14.736000;-0.0767;1.1661;0.6480;1.336
14.737000;-0.0392;1.1639;0.9062;1.476
14.739000;-0.0016;1.1153;1.1643;1.612
14.743000;0.0243;1.0579;1.3819;1.741
14.748000;-0.0238;0.9840;1.5951;1.874
14.753000;-0.0957;0.8646;1.7323;1.938
14.757000;-0.1323;0.7688;1.7482;1.914
14.762000;-0.2439;0.7065;1.6072;1.772
14.766000;-0.3632;0.7571;1.4382;1.665
14.773000;-0.5113;0.8092;1.2745;1.594
14.776000;-0.5823;0.8248;1.1231;1.510
14.816000;-0.5978;0.7953;0.9958;1.408
14.817000;-0.5367;0.7592;0.9307;1.316
14.817000;-0.4140;0.7225;0.8532;1.192
14.817000;-0.2710;0.6137;0.9116;1.132
14.817000;-0.0719;0.5360;1.0959;1.222
14.818000;0.1163;0.4559;1.3080;1.390
14.818000;0.3038;0.3731;1.6149;1.685
14.818000;0.4507;0.3032;2.0049;2.077
14.824000;0.5862;0.2268;2.3846;2.466
14.826000;0.6179;0.1667;2.7138;2.788
14.831000;0.6329;0.0933;2.8542;2.925
14.836000;0.6176;0.0657;2.9448;3.010
14.841000;0.5718;-0.0909;3.1196;3.173
14.845000;0.5098;-0.1662;2.7955;2.846
14.850000;0.4308;-0.2621;2.5247;2.575
14.856000;0.3528;-0.3591;2.2930;2.348
14.861000;0.3256;-0.4517;1.9566;2.034
14.865000;0.3222;-0.5897;1.5561;1.695
14.871000;0.3014;-0.7244;1.2205;1.451
14.875000;0.2786;-0.8837;0.8802;1.278
14.880000;0.2361;-0.9659;0.4844;1.106
14.885000;0.1541;-1.0128;0.1454;1.035
14.890000;0.0948;-1.0973;-0.0180;1.102
14.895000;0.0689;-1.1832;-0.0038;1.185
14.899000;0.0681;-1.3209;0.2023;1.338
14.905000;0.1078;-1.4155;0.4306;1.483
14.949000;0.1223;-1.5018;0.7436;1.680
14.950000;0.1961;-1.5209;1.0649;1.867
14.950000;0.2271;-1.5106;1.3426;2.034
14.951000;0.2736;-1.4242;1.5243;2.104
14.951000;0.3243;-1.3467;1.6489;2.154
14.951000;0.4299;-1.2427;1.6855;2.138
14.951000;0.5326;-1.1013;1.6487;2.053
14.952000;0.6152;-1.0304;1.5293;1.944
14.952000;0.7117;-0.9586;1.2845;1.754
14.953000;0.7632;-0.8470;0.9908;1.511
14.966000;0.8300;-0.7552;0.6577;1.301
14.966000;0.9326;-0.6584;0.4166;1.215
14.968000;1.0221;-0.6131;0.1380;1.200
14.976000;1.1246;-0.5425;-0.1279;1.255
14.978000;1.1371;-0.4940;-0.3574;1.290
14.985000;1.1507;-0.4691;-0.5628;1.364
15.012000;1.0945;-0.4407;-0.7156;1.380
15.012000;1.0172;-0.4183;-0.8733;1.404
15.012000;0.9387;-0.4276;-0.9764;1.420
15.013000;0.8818;-0.3988;-1.0728;1.445
15.013000;0.8136;-0.3794;-1.1413;1.452
15.013000;0.7635;-0.3763;-1.1174;1.405
15.017000;0.7392;-0.4179;-1.0490;1.350
15.021000;0.7055;-0.4471;-0.9434;1.260
15.027000;0.6841;-0.5261;-0.7839;1.166
15.032000;0.6438;-0.5792;-0.6395;1.077
15.037000;0.5700;-0.6354;-0.4624;0.971
15.041000;0.4742;-0.6621;-0.3215;0.876
15.046000;0.3322;-0.6741;-0.2024;0.778
15.051000;0.1340;-0.6815;-0.0715;0.698
15.056000;-0.0418;-0.6705;0.0524;0.674
15.061000;-0.2196;-0.6704;0.1192;0.715
15.066000;-0.3563;-0.6484;0.1267;0.751
15.072000;-0.4912;-0.6331;0.1158;0.810
15.076000;-0.5764;-0.6154;0.0147;0.843
15.081000;-0.6504;-0.5738;-0.0807;0.871
15.085000;-0.6677;-0.5706;-0.2207;0.906
15.132000;-0.7144;-0.5289;-0.4197;0.983
15.133000;-0.7041;-0.4462;-0.6226;1.040
15.133000;-0.6921;-0.3841;-0.8440;1.157
15.133000;-0.6497;-0.3256;-1.0289;1.260
15.133000;-0.5936;-0.2223;-1.2087;1.365
15.134000;-0.5384;-0.1552;-1.3499;1.462
15.134000;-0.4432;-0.1003;-1.4240;1.495
15.134000;-0.3442;-0.0425;-1.4647;1.505
15.134000;-0.2177;-0.0083;-1.4050;1.422
15.136000;-0.1114;-0.0095;-1.3289;1.334
15.140000;-0.0084;0.0304;-1.2672;1.268
15.145000;0.0844;0.0298;-1.1340;1.138
15.149000;0.1340;0.0531;-1.0249;1.035
15.154000;0.1406;0.0855;-0.8776;0.893
15.159000;0.1574;0.1172;-0.7685;0.793
15.165000;0.1562;0.1671;-0.7166;0.752
15.169000;0.1321;0.2087;-0.7099;0.752
15.174000;0.1331;0.2804;-0.7054;0.771
15.179000;0.1112;0.3175;-0.7699;0.840
15.183000;0.1693;0.3585;-0.8341;0.924
15.191000;0.2400;0.3847;-1.0223;1.118
15.193000;0.2852;0.3867;-1.1815;1.276
15.198000;0.3285;0.3699;-1.3646;1.451
15.252000;0.3889;0.3348;-1.5165;1.601
15.253000;0.4231;0.3606;-1.6327;1.725
15.253000;0.4403;0.3064;-1.7157;1.798
15.254000;0.4233;0.2778;-1.7561;1.828
15.254000;0.3770;0.2701;-1.7682;1.828
15.254000;0.2797;0.2497;-1.7497;1.789
15.254000;0.2293;0.2048;-1.6839;1.712
15.255000;0.1443;0.2431;-1.5829;1.608
15.255000;0.0704;0.2089;-1.4562;1.473
15.256000;0.0100;0.2001;-1.2321;1.248
15.256000;0.0016;0.2041;-1.0229;1.043
15.257000;0.0479;0.1943;-0.8475;0.871
15.262000;0.0890;0.2012;-0.6293;0.667
15.267000;0.1228;0.2151;-0.4663;0.528
15.276000;0.1900;0.2115;-0.3367;0.441
15.277000;0.2431;0.2597;-0.2238;0.420
15.281000;0.3348;0.3279;-0.1226;0.484
15.286000;0.3718;0.4040;-0.1333;0.565
15.339000;0.3875;0.4833;-0.1891;0.648
15.340000;0.3988;0.5490;-0.3041;0.744
15.340000;0.3961;0.6110;-0.4496;0.856
15.340000;0.4173;0.7009;-0.6187;1.024
15.340000;0.4239;0.7881;-0.7875;1.192
15.341000;0.4347;0.8184;-0.9204;1.306
15.341000;0.4617;0.8327;-1.0486;1.416
15.341000;0.4787;0.8673;-1.0813;1.466
15.341000;0.5145;0.8267;-1.0547;1.435
15.341000;0.5045;0.8020;-0.9544;1.345
15.342000;0.5154;0.7902;-0.8138;1.246
15.345000;0.4589;0.8129;-0.6212;1.121
15.350000;0.4139;0.8192;-0.4408;1.018
15.356000;0.3591;0.8135;-0.2511;0.924
15.361000;0.3587;0.7787;-0.0377;0.858
15.365000;0.3383;0.7480;0.1973;0.844
15.370000;0.2998;0.6733;0.4131;0.845
15.375000;0.2385;0.6258;0.5741;0.882
15.381000;0.2099;0.5817;0.6780;0.918
15.384000;0.1454;0.4927;0.7918;0.944
15.415000;0.0715;0.4642;0.8486;0.970
15.415000;0.0148;0.4771;0.8127;0.942
15.416000;-0.0412;0.4645;0.7867;0.915
15.416000;-0.0984;0.4676;0.6774;0.829
15.416000;-0.1281;0.4580;0.5422;0.721
15.416000;-0.1137;0.4889;0.4192;0.654
15.419000;-0.1079;0.4867;0.2867;0.575
15.425000;-0.0797;0.5211;0.1994;0.564
15.428000;-0.0983;0.5588;0.2053;0.603
15.433000;-0.1133;0.6167;0.2921;0.692
15.439000;-0.1514;0.6776;0.3666;0.785
15.443000;-0.1867;0.7007;0.5101;0.887
15.448000;-0.1892;0.6809;0.5985;0.926
15.453000;-0.1599;0.6299;0.7371;0.983
15.459000;-0.1046;0.5360;0.8611;1.020
15.463000;-0.0165;0.4516;0.9468;1.049
15.468000;-0.0143;0.3794;1.0228;1.091
15.475000;-0.0535;0.3764;1.1274;1.190
15.478000;-0.1469;0.3973;1.1698;1.244
15.484000;-0.2266;0.4565;1.2264;1.328
15.487000;-0.2948;0.5710;1.2231;1.382
15.548000;-0.3523;0.6599;1.1837;1.400
15.548000;-0.3250;0.6402;1.1870;1.387
15.549000;-0.2491;0.5767;1.3045;1.448
15.549000;-0.1532;0.3838;1.2516;1.318
