time;ax;ay;az;aT
0.003000;-0.0560;0.5985;0.5676;0.827
0.004000;0.0586;0.4071;-0.0763;0.418
0.004000;0.3079;0.1800;-0.6091;0.706
0.010000;0.5836;-0.0954;-0.9288;1.101
0.011000;0.7104;-0.2128;-1.0437;1.280
0.016000;0.7440;-0.1941;-1.0212;1.278
0.022000;0.5921;-0.1138;-0.9833;1.153
0.026000;0.4600;0.0206;-0.8823;0.995
0.031000;0.3370;0.1536;-0.7827;0.866
0.036000;0.2680;0.1942;-0.6627;0.741
0.041000;0.2683;0.2040;-0.5033;0.606
0.046000;0.2921;0.1848;-0.4211;0.545
0.051000;0.2623;0.1643;-0.4562;0.551
0.057000;0.2080;0.1929;-0.4056;0.495
0.061000;0.2172;0.1744;-0.1643;0.323
0.065000;0.2219;0.2540;-0.0549;0.342
0.071000;0.2061;0.2854;0.1356;0.377
0.076000;0.1998;0.2756;0.3734;0.505
0.080000;0.2091;0.2715;0.6086;0.698
0.085000;0.2147;0.2246;0.7863;0.845
0.091000;0.1852;0.1868;0.9405;0.977
0.095000;0.1684;0.1099;1.0615;1.080
0.100000;0.1235;0.0461;1.1282;1.136
0.106000;0.0723;0.0049;1.1502;1.152
0.110000;-0.0089;-0.0112;1.1133;1.113
0.115000;-0.0836;-0.0189;1.0224;1.026
0.120000;-0.1341;-0.0320;0.8895;0.900
0.125000;-0.1573;-0.0284;0.6335;0.653
0.129000;-0.1877;-0.0312;0.3787;0.424
0.134000;-0.1749;-0.0586;0.1940;0.268
0.139000;-0.1752;-0.0496;0.0288;0.184
0.145000;-0.1835;0.0057;-0.1456;0.234
0.149000;-0.1468;0.0268;-0.2508;0.292
0.155000;-0.1173;0.0378;-0.3274;0.350
0.159000;-0.0545;0.0437;-0.3304;0.338
0.164000;0.0077;0.0206;-0.2836;0.284
0.168000;0.0714;0.0255;-0.1778;0.193
0.175000;0.1163;0.0510;-0.0607;0.141
0.179000;0.1303;0.0701;0.1179;0.189
0.183000;0.1771;0.0944;0.2888;0.352
0.198000;0.2231;0.1089;0.4162;0.485
0.199000;0.2277;0.0633;0.5267;0.577
0.199000;0.2242;0.0120;0.6061;0.646
0.203000;0.1938;-0.0237;0.6021;0.633
0.208000;0.1843;-0.0415;0.5912;0.621
0.213000;0.1122;-0.0105;0.5593;0.570
0.217000;0.0472;-0.0190;0.4871;0.490
0.222000;-0.0083;-0.0192;0.3940;0.395
0.227000;-0.0803;-0.0108;0.3134;0.324
0.232000;-0.1211;-0.0125;0.1759;0.214
0.236000;-0.1473;-0.0314;0.0841;0.173
0.242000;-0.1614;-0.0481;-0.0192;0.170
0.247000;-0.1754;-0.0432;-0.1032;0.208
0.251000;-0.1631;-0.0237;-0.2061;0.264
0.257000;-0.1222;-0.0707;-0.3184;0.348
0.262000;-0.0934;-0.0357;-0.3661;0.380
0.266000;-0.0647;0.0049;-0.3711;0.377
0.271000;-0.0652;-0.0110;-0.3786;0.384
0.276000;-0.0492;0.0218;-0.3220;0.326
0.281000;-0.0335;0.0270;-0.2323;0.236
0.286000;-0.0249;0.0161;-0.1909;0.193
0.291000;-0.0211;-0.0085;-0.0876;0.090
0.296000;-0.0243;-0.0326;0.0058;0.041
0.301000;-0.0634;-0.0490;0.1107;0.137
0.306000;-0.1264;-0.0871;0.1533;0.217
0.311000;-0.1627;-0.0895;0.2437;0.306
0.315000;-0.2106;-0.1044;0.2719;0.359
0.322000;-0.2845;-0.1608;0.3027;0.445
0.325000;-0.3155;-0.1512;0.3026;0.463
0.330000;-0.3488;-0.1425;0.2121;0.432
0.335000;-0.3395;-0.1298;0.1220;0.383
0.340000;-0.3497;-0.1346;0.0300;0.376
0.345000;-0.3268;-0.1541;-0.0665;0.367
0.349000;-0.3139;-0.1546;-0.1604;0.385
0.356000;-0.2704;-0.1430;-0.2325;0.384
0.359000;-0.2466;-0.1215;-0.2665;0.383
0.364000;-0.1731;-0.1185;-0.2933;0.361
0.369000;-0.1216;-0.0956;-0.2941;0.332
0.374000;-0.0992;-0.0744;-0.2617;0.290
0.379000;-0.0646;-0.0573;-0.2438;0.259
0.383000;-0.0297;-0.0705;-0.1785;0.194
0.389000;-0.0301;-0.0640;-0.1564;0.172
0.394000;-0.0393;-0.0856;-0.0963;0.135
0.399000;-0.1078;-0.0877;0.0017;0.139
0.403000;-0.1283;-0.0872;0.0851;0.177
0.408000;-0.1942;-0.0701;0.1445;0.252
0.413000;-0.1982;-0.1035;0.1847;0.290
0.418000;-0.2285;-0.1207;0.1629;0.305
0.423000;-0.2395;-0.1407;0.1198;0.303
0.428000;-0.2364;-0.1826;0.1104;0.319
0.433000;-0.2121;-0.1749;0.1035;0.294
0.438000;-0.2192;-0.1652;0.0490;0.279
0.443000;-0.2146;-0.1296;0.0401;0.254
0.448000;-0.1699;-0.1277;0.0241;0.214
0.453000;-0.1352;-0.0996;0.0081;0.168
0.457000;-0.0889;-0.0785;0.0136;0.119
0.463000;-0.0377;-0.0931;0.0072;0.101
0.468000;-0.0031;-0.0981;-0.0300;0.103
0.474000;0.0173;-0.0957;-0.0503;0.110
0.477000;-0.0096;-0.0791;-0.0562;0.097
0.482000;0.0043;-0.0436;-0.0596;0.074
0.487000;-0.0294;-0.0176;-0.0347;0.049
0.492000;-0.0273;-0.0224;-0.0361;0.050
0.497000;-0.0372;-0.0151;-0.0352;0.053
0.501000;-0.0327;-0.0410;-0.0035;0.053
0.507000;0.0025;-0.0570;-0.0029;0.057
0.511000;-0.0003;-0.0704;0.0166;0.072
0.516000;-0.0052;-0.0457;-0.0044;0.046
0.521000;-0.0216;-0.0829;-0.0086;0.086
0.526000;0.0007;-0.0767;-0.0532;0.093
0.531000;-0.0145;-0.0396;-0.0666;0.079
0.536000;-0.0054;-0.0358;-0.0894;0.096
0.541000;0.0227;-0.0247;-0.0718;0.079
0.545000;0.0221;-0.0233;-0.0875;0.093
0.550000;0.0378;-0.0455;-0.0604;0.085
0.556000;0.0271;-0.0129;-0.0715;0.078
0.561000;0.0256;-0.0066;-0.0540;0.060
0.565000;0.0191;0.0186;-0.0628;0.068
0.570000;0.0006;0.0459;-0.0621;0.077
0.575000;-0.0060;0.0515;-0.0826;0.098
0.580000;0.0137;0.0310;-0.0674;0.075
0.585000;0.0286;0.0603;-0.0879;0.110
0.599000;0.0199;0.0372;-0.0892;0.099
0.600000;0.0636;0.0261;-0.1261;0.144
0.600000;0.0617;0.0435;-0.1531;0.171
0.604000;0.0884;0.0489;-0.1444;0.176
0.624000;0.0652;0.0234;-0.1713;0.185
0.624000;0.0613;0.0147;-0.1861;0.196
0.625000;0.0528;-0.0058;-0.1961;0.203
0.625000;0.0565;-0.0048;-0.1917;0.200
0.629000;0.0745;-0.0228;-0.2371;0.250
0.634000;0.0641;-0.0288;-0.2988;0.307
0.639000;0.0468;0.0033;-0.3481;0.351
0.643000;0.0441;0.0116;-0.3900;0.393
0.649000;0.0723;0.0152;-0.3864;0.393
0.653000;0.0792;-0.0140;-0.3854;0.394
0.660000;0.0670;-0.0021;-0.4130;0.418
0.663000;0.0477;0.0055;-0.4192;0.422
0.668000;0.0380;-0.0007;-0.3637;0.366
0.673000;-0.0072;0.0291;-0.3279;0.329
0.678000;-0.0404;0.0471;-0.2853;0.292
0.682000;-0.0069;0.0344;-0.2360;0.239
0.688000;-0.0241;0.0172;-0.2156;0.218
0.692000;0.0179;0.0193;-0.1433;0.146
0.697000;0.0329;-0.0001;-0.1451;0.149
0.703000;0.0427;0.0166;-0.0995;0.110
0.708000;0.0024;0.0093;-0.0425;0.044
0.711000;0.0003;0.0115;-0.0119;0.017
0.717000;-0.0352;-0.0359;0.0468;0.069
0.723000;-0.0088;-0.0262;-0.0635;0.069
0.727000;-0.0132;-0.0330;0.1143;0.120
0.731000;-0.0269;-0.0424;0.0486;0.070
0.736000;-0.0330;-0.0374;0.0238;0.055
0.742000;-0.0168;-0.0492;0.0610;0.080
0.747000;-0.0049;-0.0656;0.0409;0.078
0.751000;0.0028;-0.0629;0.0281;0.069
0.757000;-0.0013;-0.0292;0.0272;0.040
0.761000;0.0018;0.0138;-0.0140;0.020
0.766000;0.0188;0.0519;-0.0383;0.067
0.771000;0.0307;0.0588;-0.0482;0.082
0.776000;0.0374;0.0751;-0.0581;0.102
0.781000;0.0482;0.0843;-0.0417;0.106
0.786000;0.0728;0.1103;-0.0446;0.139
0.791000;0.0474;0.1196;-0.0332;0.133
0.796000;0.0387;0.1267;-0.0434;0.139
0.800000;0.0255;0.1173;-0.0179;0.121
0.805000;0.0032;0.1367;-0.0165;0.138
0.815000;0.0074;0.1254;-0.0364;0.131
0.816000;-0.0048;0.1142;-0.0349;0.120
0.820000;-0.0142;0.1034;-0.0097;0.105
0.825000;-0.0186;0.1023;-0.0180;0.106
0.830000;-0.0656;0.0872;-0.0096;0.110
0.835000;-0.0320;0.1033;0.0555;0.122
0.843000;0.0004;0.0648;0.0798;0.103
0.844000;0.0575;0.0647;0.1322;0.158
0.849000;0.0682;0.0267;0.1534;0.170
0.854000;0.1137;0.0056;0.2052;0.235
0.859000;0.1322;0.0156;0.2328;0.268
0.865000;0.1623;0.0352;0.2579;0.307
0.869000;0.1801;0.0380;0.3016;0.353
0.874000;0.1669;0.0193;0.3024;0.346
0.879000;0.1612;0.0460;0.3529;0.391
0.883000;0.1087;0.0396;0.3887;0.406
0.888000;0.1048;0.0500;0.3909;0.408
0.896000;0.0757;0.0057;0.4217;0.428
0.898000;0.0721;-0.0100;0.4599;0.466
0.902000;0.0361;-0.0257;0.4670;0.469
0.909000;0.0154;-0.0393;0.4671;0.469
0.913000;0.0029;-0.0438;0.4625;0.465
0.918000;-0.0449;-0.0393;0.4222;0.426
0.925000;-0.0733;-0.0401;0.4156;0.424
0.927000;-0.0733;-0.0153;0.3758;0.383
0.933000;-0.0929;-0.0055;0.3433;0.356
0.937000;-0.0606;-0.0060;0.3112;0.317
0.942000;-0.0360;0.0169;0.2553;0.258
0.947000;0.0073;0.0392;0.2187;0.222
0.952000;0.0428;0.0560;0.1835;0.197
0.957000;0.0730;0.0818;0.1487;0.185
0.962000;0.0886;0.0882;0.1641;0.206
0.967000;0.0925;0.1156;0.1605;0.218
0.972000;0.1015;0.1188;0.1332;0.205
0.977000;0.1016;0.0955;0.0801;0.161
0.982000;0.1120;0.0936;-0.0033;0.146
0.987000;0.0589;0.0962;-0.0978;0.149
0.994000;0.0255;0.1155;-0.1631;0.201
0.996000;0.0140;0.1331;-0.2531;0.286
1.001000;-0.0000;0.1388;-0.3240;0.352
1.012000;-0.0334;0.1450;-0.3518;0.382
1.013000;-0.0313;0.1327;-0.4108;0.433
1.015000;-0.0294;0.1473;-0.4054;0.432
1.020000;-0.0327;0.1289;-0.3834;0.406
1.026000;-0.0581;0.1206;-0.3831;0.406
1.030000;-0.0292;0.1080;-0.3231;0.342
1.035000;-0.0440;0.1244;-0.2849;0.314
1.041000;-0.0400;0.1124;-0.2516;0.278
1.044000;-0.0600;0.0624;-0.2257;0.242
1.050000;-0.0870;0.0270;-0.1639;0.188
1.054000;-0.1018;-0.0320;-0.1310;0.169
1.060000;-0.1502;-0.0861;-0.1316;0.217
1.065000;-0.1842;-0.0993;-0.1227;0.243
1.069000;-0.2088;-0.1148;-0.1186;0.266
1.074000;-0.2262;-0.1206;-0.1074;0.278
1.079000;-0.2340;-0.1403;-0.1369;0.305
1.084000;-0.2181;-0.1384;-0.1210;0.285
1.089000;-0.2002;-0.1290;-0.0479;0.243
1.095000;-0.1635;-0.1218;-0.0060;0.204
1.100000;-0.1820;-0.1168;0.0835;0.232
1.105000;-0.1721;-0.1142;0.1777;0.272
1.113000;-0.1746;-0.1022;0.3218;0.380
1.115000;-0.1846;-0.1337;0.3823;0.445
1.119000;-0.2019;-0.1610;0.4858;0.550
1.141000;-0.1596;-0.1654;0.5009;0.551
1.143000;-0.1599;-0.1804;0.5140;0.568
1.143000;-0.1480;-0.1630;0.4580;0.508
1.143000;-0.1285;-0.1462;0.3617;0.411
1.144000;-0.1536;-0.1324;0.2801;0.346
1.148000;-0.1155;-0.1547;0.1460;0.242
1.153000;-0.1147;-0.1291;0.0290;0.175
1.159000;-0.0988;-0.1321;-0.0974;0.192
1.163000;-0.0587;-0.0771;-0.1999;0.222
1.168000;0.0102;-0.0572;-0.3311;0.336
1.172000;0.0460;-0.0530;-0.3906;0.397
1.178000;0.1081;-0.0688;-0.4505;0.468
1.182000;0.1752;-0.0567;-0.4628;0.498
1.187000;0.2232;-0.0505;-0.4014;0.462
1.193000;0.2284;-0.0333;-0.3166;0.392
1.197000;0.2216;-0.0175;-0.1988;0.298
1.202000;0.1501;0.0088;-0.0599;0.162
1.207000;0.0953;0.0405;0.0596;0.119
1.212000;0.0505;0.0244;0.1979;0.206
1.216000;0.0445;0.0034;0.3145;0.318
1.221000;0.0248;-0.0373;0.3403;0.343
1.227000;-0.0064;-0.0716;0.3592;0.366
1.231000;-0.0589;-0.1190;0.3472;0.372
1.236000;-0.0921;-0.0912;0.3166;0.342
1.241000;-0.1182;-0.0955;0.2264;0.273
1.247000;-0.1111;-0.0911;0.0937;0.172
1.251000;-0.0878;-0.0921;-0.0148;0.128
1.255000;-0.0434;-0.0907;-0.1350;0.168
1.261000;0.0269;-0.1083;-0.2001;0.229
1.265000;0.0660;-0.0707;-0.2413;0.260
1.270000;0.0785;-0.0730;-0.2754;0.296
1.275000;0.1006;-0.0866;-0.2523;0.285
1.280000;0.0894;-0.0897;-0.2294;0.262
1.285000;0.0783;-0.0876;-0.2258;0.255
1.290000;0.0601;-0.0779;-0.1889;0.213
1.296000;0.0010;-0.0366;-0.2070;0.210
1.300000;-0.0180;0.0053;-0.2206;0.221
1.305000;-0.0304;-0.0144;-0.2008;0.204
1.310000;-0.0093;-0.0215;-0.1573;0.159
1.316000;0.0173;-0.0473;-0.0733;0.089
1.319000;0.0016;-0.0660;-0.0491;0.082
1.325000;0.0056;-0.0731;0.0802;0.109
1.329000;-0.0191;-0.0710;0.1688;0.184
1.334000;-0.0752;-0.0672;0.1882;0.214
1.338000;-0.1032;-0.0428;0.2173;0.244
1.344000;-0.1155;-0.0170;0.1940;0.226
1.349000;-0.1194;-0.0042;0.1924;0.226
1.354000;-0.0738;-0.0210;0.1862;0.201
1.359000;-0.0166;-0.0386;0.1372;0.144
1.363000;0.0712;-0.0499;0.0599;0.106
1.369000;0.1063;-0.0403;-0.0052;0.114
1.373000;0.1346;-0.0167;-0.0511;0.145
1.380000;0.1443;-0.0121;-0.1136;0.184
1.383000;0.1521;0.0378;-0.1449;0.213
1.388000;0.1291;-0.0335;-0.0473;0.142
1.396000;0.1257;0.0150;-0.2319;0.264
1.397000;0.0819;0.0497;-0.1749;0.199
1.404000;0.0456;0.0345;-0.1205;0.133
1.414000;0.0285;0.0221;-0.1332;0.138
1.415000;0.0063;0.0268;-0.1244;0.127
1.417000;-0.0211;-0.0186;-0.0942;0.098
1.422000;-0.0681;-0.0397;-0.0665;0.103
1.427000;-0.1185;-0.0561;-0.0197;0.133
1.431000;-0.1999;-0.0579;0.0624;0.217
1.436000;-0.2538;-0.0553;0.0893;0.275
1.442000;-0.3039;-0.0601;0.1065;0.328
1.446000;-0.2835;-0.0627;0.1307;0.318
1.451000;-0.2617;-0.0679;0.1761;0.323
1.456000;-0.2144;-0.1064;0.2354;0.336
1.461000;-0.1389;-0.0643;0.2468;0.290
1.466000;-0.0710;-0.0749;0.2464;0.267
1.471000;-0.0274;-0.0572;0.2246;0.233
1.476000;0.0494;0.0003;0.1865;0.193
1.481000;0.1022;0.0049;0.1677;0.196
1.486000;0.1408;0.0423;0.1089;0.183
1.490000;0.1721;0.0484;0.0814;0.196
1.496000;0.1701;0.1042;0.0115;0.200
1.500000;0.2107;0.0955;-0.0032;0.231
1.505000;0.1941;0.0846;0.0035;0.212
1.518000;0.1538;0.0668;-0.0303;0.170
1.519000;0.1165;0.0494;0.0264;0.129
1.519000;0.0511;0.0464;0.0755;0.102
1.528000;0.0076;0.0125;0.1313;0.132
1.530000;-0.1091;0.0334;0.1843;0.217
1.534000;-0.1699;0.0467;0.1492;0.231
1.539000;-0.2061;0.0168;0.1595;0.261
1.544000;-0.1963;0.0036;0.1460;0.245
1.549000;-0.1646;0.0141;0.1422;0.218
1.554000;-0.1377;0.0006;0.1882;0.233
1.561000;-0.1109;0.0372;0.2149;0.245
1.565000;-0.0696;0.0471;0.2295;0.244
1.569000;-0.0046;0.0497;0.2299;0.235
1.575000;0.0201;0.0210;0.2374;0.239
1.582000;0.0288;-0.0292;0.2283;0.232
1.588000;0.0599;0.0964;0.2028;0.232
1.589000;0.1598;0.1896;0.2013;0.319
1.597000;0.2366;0.3077;0.2117;0.442
1.602000;0.2658;0.2871;0.0987;0.404
1.603000;0.2862;0.2684;0.0081;0.392
1.613000;0.3681;0.2593;-0.0250;0.451
1.614000;0.3658;0.2505;-0.0176;0.444
1.618000;0.3632;0.2134;0.0017;0.421
1.623000;0.3414;0.1549;0.0544;0.379
1.628000;0.2842;0.1155;0.0832;0.318
1.633000;0.2229;0.0786;0.0904;0.253
1.638000;0.1698;0.0773;0.1479;0.238
1.643000;0.0868;0.1046;0.1527;0.204
1.648000;0.0146;0.0746;0.1766;0.192
1.653000;-0.0201;0.0827;0.1909;0.209
1.658000;-0.0224;0.0666;0.2006;0.213
1.662000;-0.0239;0.0382;0.1912;0.196
1.667000;-0.0057;0.0408;0.1866;0.191
1.672000;0.0223;0.0431;0.1892;0.195
1.680000;0.0359;0.0495;0.1848;0.195
1.682000;0.0657;0.0695;0.1997;0.221
1.688000;0.1178;0.0883;0.1682;0.224
1.694000;0.1495;0.1226;0.1347;0.236
1.697000;0.1681;0.1465;0.0637;0.232
1.702000;0.2047;0.1862;-0.0184;0.277
1.706000;0.2145;0.1609;-0.0855;0.282
1.711000;0.2193;0.1643;-0.1568;0.316
1.720000;0.2212;0.1248;-0.1990;0.323
1.721000;0.2062;0.0692;-0.2574;0.337
1.729000;0.1436;0.0117;-0.2751;0.311
1.731000;0.1055;-0.0357;-0.3282;0.347
1.736000;0.0499;0.0221;-0.3668;0.371
1.741000;-0.0194;0.0515;-0.4031;0.407
1.745000;-0.0240;0.0981;-0.4465;0.458
1.752000;-0.0288;0.1167;-0.4901;0.505
1.755000;-0.0433;0.1361;-0.5028;0.523
1.761000;-0.0315;0.1038;-0.5180;0.529
1.765000;-0.0411;0.1013;-0.5023;0.514
1.770000;-0.0173;0.0902;-0.4631;0.472
1.775000;-0.0197;0.0872;-0.4265;0.436
1.780000;-0.0149;0.0946;-0.3542;0.367
1.785000;-0.0294;0.0669;-0.2966;0.305
1.789000;-0.0104;0.0734;-0.2034;0.216
1.796000;-0.0320;0.0588;-0.1200;0.137
1.799000;-0.0514;0.0542;0.0134;0.076
1.804000;-0.0562;0.0065;0.1059;0.120
1.819000;-0.1110;-0.0580;0.1913;0.229
1.821000;-0.1538;-0.0970;0.2384;0.300
1.821000;-0.1869;-0.1487;0.3192;0.399
1.824000;-0.2372;-0.1274;0.3475;0.440
1.829000;-0.3095;-0.0953;0.3210;0.456
1.835000;-0.3320;-0.0957;0.2687;0.438
1.839000;-0.3382;-0.1281;0.2070;0.417
1.844000;-0.3038;-0.1517;0.0549;0.344
1.848000;-0.2889;-0.1325;-0.0396;0.320
1.853000;-0.3172;-0.1084;-0.1508;0.368
1.858000;-0.2716;-0.0961;-0.2284;0.368
1.864000;-0.2286;-0.0998;-0.2583;0.359
1.868000;-0.2097;-0.0576;-0.2834;0.357
1.873000;-0.1720;-0.0432;-0.2490;0.306
1.880000;-0.1202;-0.0303;-0.1719;0.212
1.883000;-0.1260;-0.0312;-0.0663;0.146
1.888000;-0.1056;-0.0387;0.0629;0.129
1.898000;-0.1018;-0.0031;0.1704;0.199
1.900000;-0.0928;0.0010;0.2659;0.282
1.903000;-0.0879;-0.0240;0.2682;0.283
1.908000;-0.1205;-0.0378;0.2539;0.284
1.926000;-0.1188;-0.0380;0.1801;0.219
1.927000;-0.1332;-0.0411;0.0945;0.168
1.928000;-0.1422;-0.0134;0.0140;0.144
1.928000;-0.1558;-0.0005;-0.0903;0.180
1.932000;-0.1026;-0.0139;-0.1825;0.210
1.937000;-0.0594;-0.0221;-0.2340;0.242
1.941000;0.0164;-0.0491;-0.3309;0.335
1.951000;0.0413;-0.0585;-0.3418;0.349
1.952000;0.0535;-0.0267;-0.3410;0.346
1.956000;0.0390;-0.0180;-0.2877;0.291
1.967000;0.0553;0.0130;-0.2443;0.251
1.968000;0.0382;0.0254;-0.1580;0.165
1.971000;0.0357;0.0121;-0.0792;0.088
1.985000;0.0148;0.0062;0.0186;0.025
1.986000;-0.0318;-0.0115;0.0445;0.056
1.986000;-0.0417;-0.0292;0.0823;0.097
1.990000;-0.0749;-0.0397;0.1106;0.139
1.996000;-0.1145;-0.0433;0.0958;0.155
2.000000;-0.1154;-0.0689;0.0716;0.152
2.005000;-0.1137;-0.0445;0.0499;0.132
2.013000;-0.1122;-0.0251;-0.0004;0.115
2.018000;-0.0657;0.0012;-0.0147;0.067
2.020000;-0.0103;-0.0181;-0.0505;0.055
2.025000;0.0183;-0.0206;-0.0528;0.060
2.039000;0.0412;-0.0254;0.0238;0.054
2.040000;-0.0012;0.0030;0.0597;0.060
2.041000;-0.0104;0.0336;0.0860;0.093
2.044000;-0.0341;0.0567;0.0837;0.107
2.049000;0.0136;0.0103;0.2415;0.242
2.054000;-0.0058;0.0017;-0.0429;0.043
2.059000;-0.0418;-0.0359;-0.0089;0.056
2.064000;-0.0248;-0.0447;0.0580;0.077
2.069000;-0.0270;-0.0299;-0.0297;0.050
2.073000;-0.0175;-0.0178;-0.0336;0.042
2.079000;-0.0177;0.0131;-0.0589;0.063
2.083000;-0.0107;0.0177;-0.0697;0.073
2.088000;0.0438;0.0037;-0.0947;0.104
2.096000;0.0717;-0.0101;-0.1172;0.138
2.098000;0.0639;0.0122;-0.1206;0.137
2.103000;0.0896;0.0371;-0.1003;0.140
2.108000;0.0821;0.0315;-0.0804;0.119
2.118000;0.1129;0.0238;-0.0108;0.116
2.119000;0.1082;0.0049;0.0343;0.114
2.123000;0.1181;0.0076;0.0790;0.142
2.128000;0.0787;-0.0275;0.1233;0.149
2.132000;0.0757;-0.0525;0.1577;0.183
2.137000;0.0020;-0.0488;0.2179;0.223
2.142000;-0.0682;-0.0762;0.2871;0.305
2.147000;-0.1066;-0.0824;0.3368;0.363
2.152000;-0.1614;-0.0939;0.3459;0.393
2.157000;-0.2136;-0.0918;0.3385;0.411
2.162000;-0.2396;-0.0762;0.3195;0.407
2.167000;-0.2445;-0.1115;0.2748;0.384
2.171000;-0.2024;-0.0925;0.2139;0.309
2.176000;-0.1563;-0.0527;0.1466;0.221
2.183000;-0.1014;-0.0206;0.0965;0.141
2.186000;-0.0611;-0.0102;0.0373;0.072
2.192000;-0.0090;-0.0092;-0.0238;0.027
2.197000;0.0026;0.0278;-0.0821;0.087
2.201000;0.0644;0.0555;-0.0902;0.124
2.206000;0.0954;0.0577;-0.1080;0.155
2.221000;0.1008;0.0415;-0.1115;0.156
2.222000;0.1115;0.0094;-0.1008;0.151
2.222000;0.0754;0.0159;-0.1141;0.138
2.225000;0.0472;-0.0223;-0.0752;0.092
2.231000;0.0168;0.0206;-0.0556;0.062
2.235000;-0.0278;-0.0152;-0.0385;0.050
2.240000;-0.0487;-0.0173;-0.0169;0.054
2.245000;-0.0838;-0.0338;0.0070;0.091
2.250000;-0.0926;-0.0573;0.0259;0.112
2.255000;-0.0969;-0.0927;0.0068;0.134
2.260000;-0.1202;-0.0921;0.0139;0.152
2.264000;-0.1243;-0.0749;0.0162;0.146
2.269000;-0.1094;-0.0911;0.0090;0.143
2.274000;-0.1275;-0.0809;0.0184;0.152
2.279000;-0.0858;-0.0755;0.0467;0.123
2.285000;-0.0630;-0.0701;0.0677;0.116
2.289000;-0.0232;-0.0696;0.0766;0.106
2.298000;-0.0073;-0.0550;0.0784;0.096
2.299000;0.0679;-0.0623;0.0684;0.115
2.304000;0.1095;-0.0343;0.0657;0.132
2.308000;0.1176;-0.0309;0.0537;0.133
2.323000;0.1421;0.0051;0.0206;0.144
2.324000;0.1474;0.0140;-0.0311;0.151
2.324000;0.1573;0.0059;-0.0680;0.171
2.334000;0.1696;-0.0075;-0.1211;0.208
2.335000;0.2006;0.0167;-0.1285;0.239
2.338000;0.2026;0.0119;-0.2307;0.307
2.343000;0.2283;-0.0047;-0.2965;0.374
2.348000;0.2582;-0.0213;-0.3498;0.435
2.353000;0.2544;-0.0090;-0.3838;0.461
2.358000;0.2574;-0.0154;-0.4128;0.487
2.363000;0.1772;-0.0234;-0.3990;0.437
2.367000;0.1286;-0.0236;-0.3119;0.338
2.372000;0.1042;-0.0187;-0.2565;0.277
2.377000;0.0632;-0.0066;-0.2064;0.216
2.383000;0.0177;-0.0084;-0.1401;0.141
2.387000;-0.0109;-0.0459;-0.0625;0.078
2.392000;-0.0820;-0.0382;-0.0614;0.109
2.397000;-0.1334;-0.0521;-0.0746;0.161
2.403000;-0.1418;-0.0636;-0.0686;0.170
2.407000;-0.2143;-0.0705;-0.0958;0.245
2.420000;-0.2556;-0.0965;-0.1062;0.293
2.421000;-0.2779;-0.1033;-0.1140;0.318
2.422000;-0.2978;-0.0770;-0.1622;0.348
2.426000;-0.2586;-0.0555;-0.2147;0.341
2.432000;-0.1939;-0.0766;-0.2146;0.299
2.436000;-0.1516;-0.0712;-0.2217;0.278
2.441000;-0.0910;-0.0605;-0.2479;0.271
2.447000;-0.0480;-0.0350;-0.2195;0.227
2.450000;-0.0223;-0.0494;-0.1986;0.206
2.456000;-0.0256;-0.0440;-0.1448;0.153
2.461000;-0.0219;-0.0262;-0.0655;0.074
2.466000;-0.0629;-0.0390;0.0131;0.075
2.471000;-0.0770;-0.0325;0.0814;0.117
2.476000;-0.1358;-0.0428;0.1207;0.187
2.480000;-0.1844;-0.0746;0.1480;0.248
2.485000;-0.2590;-0.0661;0.1679;0.316
2.490000;-0.3262;-0.0776;0.1795;0.380
2.495000;-0.3489;-0.0994;0.1961;0.412
2.500000;-0.3582;-0.1076;0.1794;0.415
2.505000;-0.3540;-0.1328;0.1341;0.401
2.509000;-0.3266;-0.1180;0.0962;0.360
2.515000;-0.2663;-0.1180;0.0751;0.301
2.520000;-0.1922;-0.1064;0.0327;0.222
2.525000;-0.1327;-0.0563;0.0070;0.144
2.535000;-0.0971;-0.0683;-0.0139;0.120
2.536000;-0.0229;-0.0464;-0.0469;0.070
2.539000;0.0039;-0.0432;-0.0488;0.065
2.544000;0.0339;-0.0276;-0.0556;0.071
2.549000;0.0504;-0.0354;-0.0268;0.067
2.554000;0.0652;-0.0547;-0.0338;0.092
2.559000;0.0567;-0.0402;-0.0028;0.070
2.564000;0.0699;-0.0018;0.0044;0.070
2.568000;0.0497;0.0174;0.0497;0.072
2.573000;0.0532;0.0294;0.0592;0.085
2.579000;0.0611;0.0243;0.0544;0.085
2.583000;0.0761;0.0429;0.0354;0.094
2.588000;0.0910;0.0541;0.0164;0.107
2.593000;0.0815;0.0837;0.0164;0.118
2.598000;0.1052;0.0606;-0.0001;0.121
2.603000;0.0932;0.0495;0.0429;0.114
2.608000;0.0906;0.0287;0.0144;0.096
2.615000;0.0927;0.0056;0.0171;0.094
2.620000;0.1208;-0.0223;-0.0159;0.124
2.622000;0.1297;-0.0311;-0.0319;0.137
2.627000;0.1644;-0.0305;-0.0026;0.167
2.633000;0.1752;-0.0275;-0.0187;0.178
2.637000;0.1504;-0.0198;-0.0133;0.152
2.642000;0.1309;-0.0261;-0.0294;0.137
2.646000;0.1141;-0.0180;-0.0453;0.124
2.652000;0.0884;-0.0123;-0.0374;0.097
2.657000;0.0823;-0.0232;-0.0201;0.088
2.663000;0.0887;-0.0077;-0.0457;0.100
2.668000;0.0953;-0.0254;-0.0593;0.115
2.671000;0.0621;-0.0401;-0.0919;0.118
2.677000;0.0488;-0.0261;-0.1004;0.115
2.681000;0.0672;-0.0357;-0.0663;0.101
2.687000;0.0292;-0.0235;-0.0800;0.088
2.691000;-0.0153;-0.0064;-0.1031;0.104
2.699000;-0.0329;-0.0367;-0.0882;0.101
2.702000;-0.0550;-0.0405;-0.0734;0.100
2.706000;-0.0675;-0.0133;-0.0824;0.107
2.710000;-0.0872;-0.0126;-0.0605;0.107
2.719000;-0.0668;-0.0213;-0.1124;0.132
2.720000;-0.0922;0.0434;-0.1543;0.185
2.726000;-0.0631;0.0340;0.0866;0.112
2.730000;-0.0415;0.0503;0.0526;0.084
2.736000;-0.0370;0.0756;0.0025;0.084
2.740000;-0.0372;0.0692;-0.0044;0.079
2.745000;-0.0445;0.0887;-0.0657;0.119
2.750000;-0.0280;0.1029;-0.0790;0.133
2.755000;-0.0404;0.0955;-0.1657;0.195
2.760000;-0.0528;0.0764;-0.2398;0.257
2.764000;-0.0961;0.0624;-0.2991;0.320
2.770000;-0.1157;0.0560;-0.3556;0.378
2.774000;-0.1430;0.0597;-0.3739;0.405
2.779000;-0.1611;0.0595;-0.3851;0.422
2.784000;-0.1726;0.0553;-0.3632;0.406
2.789000;-0.1107;0.0614;-0.3226;0.347
2.793000;-0.0493;0.0565;-0.2756;0.286
2.799000;-0.0076;0.0761;-0.1959;0.210
2.804000;0.0054;0.0583;-0.1099;0.124
2.808000;0.0259;0.0720;0.0038;0.077
2.816000;0.0489;0.0788;0.1069;0.141
2.820000;0.0269;0.0927;0.1854;0.209
2.826000;-0.0133;0.1134;0.2752;0.298
2.829000;-0.0124;0.0835;0.3240;0.335
2.839000;-0.0208;0.0651;0.3394;0.346
2.840000;-0.0622;0.0794;0.3453;0.360
2.843000;-0.1130;0.0455;0.3489;0.370
2.849000;-0.1755;0.0276;0.3552;0.397
2.852000;-0.2142;0.0256;0.3402;0.403
2.857000;-0.2093;-0.0177;0.3159;0.379
2.863000;-0.2047;-0.0354;0.2560;0.330
2.867000;-0.2220;-0.0802;0.2036;0.312
2.872000;-0.2037;-0.1038;0.1441;0.270
2.877000;-0.2122;-0.0844;0.0513;0.234
2.882000;-0.1708;-0.0481;0.0470;0.184
2.887000;-0.1490;-0.0260;-0.0005;0.151
2.891000;-0.1391;0.0110;-0.0002;0.140
2.899000;-0.0696;0.0559;0.0310;0.094
2.906000;-0.0306;0.0416;0.0859;0.100
2.907000;0.0116;0.0447;0.1406;0.148
2.912000;0.0308;0.0457;0.1903;0.198
2.920000;0.0368;0.0517;0.2495;0.257
2.921000;0.0151;0.0839;0.2513;0.265
2.926000;0.0012;0.0536;0.2986;0.303
2.931000;-0.0099;0.0515;0.2934;0.298
2.936000;-0.0258;0.0368;0.2477;0.252
2.941000;-0.0159;0.0479;0.2237;0.229
2.945000;-0.0423;0.0728;0.1234;0.149
2.951000;-0.0119;0.0422;0.0711;0.084
2.955000;-0.0014;0.0662;0.0405;0.078
2.960000;0.0276;0.0756;-0.0640;0.103
2.966000;0.0607;0.0609;-0.0896;0.124
2.970000;0.0790;0.0918;-0.1247;0.174
2.975000;0.1232;0.0942;-0.1622;0.224
2.981000;0.1050;0.0947;-0.1162;0.183
2.986000;0.1417;0.1006;-0.0775;0.190
2.990000;0.1090;0.0805;-0.0772;0.156
2.995000;0.0743;0.0802;-0.0245;0.112
3.001000;0.0425;0.0655;0.0138;0.079
3.005000;0.0111;0.0535;0.0449;0.071
3.010000;-0.0102;0.0128;0.0831;0.085
3.019000;-0.0264;0.0008;0.0710;0.076
3.020000;-0.0656;-0.0042;0.0942;0.115
3.025000;-0.0737;-0.0047;0.0936;0.119
3.034000;-0.0535;-0.0292;0.0645;0.089
3.036000;-0.0457;-0.0155;0.0334;0.059
3.038000;-0.0147;-0.0117;0.0286;0.034
3.050000;-0.0080;0.0062;0.0215;0.024
3.051000;0.0030;-0.0046;0.0288;0.029
3.055000;0.0303;0.0061;0.0170;0.035
3.058000;0.0407;0.0191;0.0171;0.048
3.063000;0.0461;0.0463;0.0244;0.070
3.068000;0.0468;0.0401;-0.0064;0.062
3.073000;0.0479;0.0601;-0.0085;0.077
3.078000;0.0516;0.0611;-0.0106;0.081
3.083000;-0.0037;0.0554;0.0252;0.061
3.087000;-0.0250;0.0404;0.0844;0.097
3.092000;-0.0150;0.0232;0.0814;0.086
3.099000;-0.0310;-0.0178;0.0643;0.074
3.102000;-0.0540;-0.0562;0.0330;0.085
3.107000;-0.0792;-0.0492;0.0424;0.102
3.112000;-0.0975;-0.0664;0.0470;0.127
3.117000;-0.0997;-0.0503;0.0398;0.119
3.122000;-0.1164;-0.0536;-0.0029;0.128
3.127000;-0.1146;-0.0522;-0.0239;0.128
3.131000;-0.0966;-0.0437;-0.0234;0.109
3.136000;-0.0554;-0.0469;-0.0395;0.083
3.141000;-0.0263;-0.0524;-0.0436;0.073
3.146000;-0.0210;-0.0481;-0.0288;0.060
3.151000;-0.0200;-0.0602;-0.0023;0.063
3.156000;-0.0329;-0.0340;0.0310;0.057
3.161000;-0.0312;-0.0481;0.0925;0.109
3.166000;-0.0768;-0.0670;0.0871;0.134
3.170000;-0.0864;-0.0715;0.1315;0.173
3.175000;-0.0934;-0.0833;0.1448;0.191
3.180000;-0.0717;-0.0811;0.1390;0.176
3.185000;-0.0738;-0.0650;0.1168;0.153
3.190000;-0.0593;-0.0472;0.0902;0.118
3.195000;-0.0257;-0.0274;0.0544;0.066
3.202000;0.0265;0.0014;0.0094;0.028
3.205000;0.0712;0.0369;-0.0565;0.098
3.210000;0.1015;0.0246;-0.1147;0.155
3.216000;0.1220;0.0459;-0.1938;0.234
3.220000;0.1280;0.0743;-0.2107;0.257
3.225000;0.1124;0.0766;-0.1990;0.241
3.231000;0.0850;0.0909;-0.2254;0.257
3.245000;0.0768;0.0793;-0.2516;0.275
3.247000;0.0614;0.0799;-0.2255;0.247
3.247000;0.0556;0.0663;-0.2637;0.278
3.249000;0.0475;0.0482;-0.2565;0.265
3.254000;0.0299;0.0545;-0.2732;0.280
3.259000;0.0242;0.0231;-0.3065;0.308
3.265000;0.0114;0.0349;-0.3278;0.330
3.268000;-0.0082;0.0281;-0.3204;0.322
3.274000;-0.0107;0.0244;-0.3371;0.338
3.279000;0.0157;-0.0121;-0.3086;0.309
3.284000;-0.0100;-0.0264;-0.2924;0.294
3.288000;-0.0139;-0.0116;-0.2479;0.249
3.293000;-0.0342;0.0037;-0.1992;0.202
3.298000;-0.0400;0.0238;-0.1463;0.154
3.303000;-0.0432;0.0298;-0.0654;0.084
3.308000;-0.0510;0.0332;-0.0325;0.069
3.312000;-0.0540;0.0434;-0.0070;0.070
3.319000;-0.0332;0.0391;0.0397;0.065
3.322000;-0.0200;0.0198;0.0316;0.042
3.327000;-0.0217;0.0477;0.0238;0.058
3.336000;-0.0218;0.0701;0.0018;0.073
3.337000;-0.0131;0.0515;-0.0056;0.053
3.342000;-0.0173;0.0636;-0.0199;0.069
3.348000;-0.0247;0.0232;-0.0175;0.038
3.352000;-0.0255;0.0113;-0.0364;0.046
3.357000;-0.0053;-0.0098;-0.0599;0.061
3.362000;0.0336;-0.0165;-0.0975;0.104
3.367000;0.0367;-0.0278;-0.0968;0.107
3.371000;0.0540;-0.0478;-0.1034;0.126
3.377000;0.0758;-0.0528;-0.0769;0.120
3.382000;0.0428;-0.0381;-0.0009;0.057
3.386000;0.0885;-0.0277;0.1241;0.155
3.391000;0.0631;-0.0500;0.2788;0.290
3.396000;0.0577;-0.0152;0.1972;0.206
3.401000;0.0485;0.0028;0.2848;0.289
3.406000;0.0333;0.0276;0.3290;0.332
3.411000;-0.0164;0.0188;0.3374;0.338
3.417000;-0.0128;0.0569;0.3505;0.355
3.426000;-0.0371;0.0920;0.3470;0.361
3.427000;-0.0421;0.0930;0.3175;0.334
3.436000;-0.0162;0.0864;0.2932;0.306
3.436000;-0.0360;0.0912;0.2621;0.280
3.440000;-0.0395;0.0787;0.1934;0.213
3.445000;-0.0224;0.0873;0.1468;0.172
3.450000;-0.0370;0.0931;0.0887;0.134
3.455000;-0.0449;0.1011;0.0360;0.116
3.460000;-0.0629;0.1089;0.0145;0.127
3.465000;-0.0623;0.1336;-0.0139;0.148
3.469000;-0.0552;0.1559;-0.0327;0.169
3.474000;-0.0556;0.1192;-0.0254;0.134
3.480000;-0.0654;0.1070;-0.0182;0.127
3.485000;-0.0840;0.1169;0.0410;0.150
3.489000;-0.1091;0.1247;0.0259;0.168
3.494000;-0.1284;0.1305;0.0656;0.194
3.506000;-0.1185;0.1364;0.0953;0.204
3.509000;-0.0937;0.1232;0.1343;0.205
3.510000;-0.0942;0.0864;0.1397;0.189
3.514000;-0.0654;0.1092;0.1855;0.225
3.521000;-0.0454;0.1148;0.1930;0.229
3.524000;-0.0229;0.1246;0.1934;0.231
3.538000;-0.0316;0.1315;0.1750;0.221
3.539000;0.0018;0.1733;0.1569;0.234
3.539000;0.0388;0.1621;0.1319;0.213
3.543000;0.0768;0.1814;0.0764;0.211
3.549000;0.0543;0.2051;0.0618;0.221
3.553000;0.0549;0.2046;0.0331;0.214
3.558000;0.0526;0.1800;0.0237;0.189
3.563000;0.0571;0.1576;-0.0330;0.171
3.567000;0.0731;0.1068;-0.1224;0.178
3.572000;0.0485;0.0613;-0.1636;0.181
3.578000;0.0428;0.0689;-0.1975;0.213
3.582000;0.0137;0.0794;-0.1885;0.205
3.587000;-0.0149;0.0739;-0.1631;0.180
3.592000;-0.0500;0.0692;-0.1382;0.162
3.600000;-0.0393;0.0984;-0.0947;0.142
3.602000;0.0002;0.1045;-0.0826;0.133
3.606000;0.0280;0.0709;-0.0162;0.078
3.611000;0.0254;0.0310;0.0567;0.069
3.621000;0.0234;0.0082;0.1502;0.152
3.622000;0.0364;-0.0072;0.2500;0.253
3.626000;0.0547;0.0081;0.3136;0.318
3.631000;0.0781;0.0037;0.3648;0.373
3.636000;0.0922;0.0295;0.3636;0.376
3.641000;0.1204;0.0449;0.3650;0.387
3.646000;0.1152;0.0165;0.3476;0.367
3.651000;0.1192;0.0183;0.3139;0.336
3.656000;0.0802;0.0169;0.2903;0.302
3.661000;0.0766;0.0360;0.2670;0.280
3.666000;0.0349;0.0234;0.1658;0.171
3.671000;0.0145;0.0295;0.1154;0.120
3.676000;-0.0342;-0.0196;0.0276;0.048
3.680000;-0.0350;-0.0279;-0.0429;0.062
3.686000;-0.0167;-0.0718;-0.1127;0.135
3.690000;-0.0293;-0.0845;-0.1440;0.170
3.695000;-0.0156;-0.0943;-0.2108;0.231
3.700000;-0.0304;-0.0847;-0.2462;0.262
3.705000;0.0360;-0.0298;-0.2221;0.227
3.709000;0.0916;0.0347;-0.1723;0.198
3.714000;0.1501;0.0827;-0.1135;0.206
3.719000;0.1787;0.0498;-0.0742;0.200
3.724000;0.2308;0.0078;-0.0662;0.240
3.729000;0.2471;-0.0079;-0.0558;0.253
3.743000;0.2423;0.0214;-0.0573;0.250
3.744000;0.1931;0.0170;-0.1085;0.222
3.744000;0.1496;0.0453;-0.1236;0.199
3.750000;0.0929;0.0425;-0.1220;0.159
3.753000;0.0279;0.0679;-0.2152;0.227
3.758000;0.0164;0.0432;-0.2530;0.257
3.763000;-0.0229;0.0540;-0.3071;0.313
3.768000;-0.0073;0.0385;-0.3393;0.342
3.774000;0.0344;0.0515;-0.3973;0.402
3.778000;0.0707;0.0645;-0.4406;0.451
3.783000;0.1018;0.1138;-0.4368;0.463
3.788000;0.1698;0.1153;-0.4379;0.484
3.792000;0.2191;0.1813;-0.4174;0.505
3.797000;0.2926;0.2163;-0.4113;0.549
3.802000;0.3763;0.2633;-0.3981;0.608
3.807000;0.4036;0.2742;-0.4111;0.638
3.812000;0.4710;0.2871;-0.4360;0.703
3.817000;0.4592;0.2786;-0.4680;0.712
3.823000;0.4570;0.2298;-0.5407;0.744
3.827000;0.3861;0.2150;-0.6182;0.760
3.832000;0.2855;0.2347;-0.6791;0.773
3.836000;0.1556;0.2267;-0.7594;0.808
3.842000;0.0230;0.2366;-0.7658;0.802
3.847000;-0.0694;0.2428;-0.7939;0.833
3.853000;-0.0957;0.2288;-0.7531;0.793
3.857000;-0.0974;0.1751;-0.7222;0.749
3.861000;-0.1133;0.1610;-0.6963;0.724
3.867000;-0.1080;0.1215;-0.5919;0.614
3.871000;-0.0962;0.0994;-0.5284;0.546
3.876000;-0.1093;0.1303;-0.4269;0.460
3.881000;-0.1544;0.1949;-0.3135;0.400
3.886000;-0.1931;0.2212;-0.2410;0.380
3.891000;-0.1747;0.2880;-0.1063;0.353
3.895000;-0.1329;0.2994;0.0091;0.328
3.902000;-0.1057;0.3030;0.0648;0.327
3.907000;-0.0882;0.3155;0.1326;0.353
3.910000;-0.0609;0.3129;0.2076;0.380
3.915000;-0.0432;0.3163;0.2160;0.385
3.922000;0.0197;0.3232;0.1840;0.372
3.924000;0.0318;0.3456;0.1261;0.369
3.929000;0.0480;0.3528;0.0685;0.363
3.935000;0.0847;0.3835;0.0038;0.393
3.940000;0.1177;0.4403;-0.0272;0.457
3.945000;0.1995;0.4592;-0.0702;0.506
3.950000;0.2730;0.4713;-0.0249;0.545
3.954000;0.3288;0.4984;0.0275;0.598
3.959000;0.3773;0.4950;0.0986;0.630
3.964000;0.4188;0.5140;0.1839;0.688
3.970000;0.4133;0.5432;0.3047;0.747
3.974000;0.3777;0.5995;0.4061;0.817
3.979000;0.3506;0.6011;0.4881;0.850
3.984000;0.3111;0.5984;0.6009;0.903
3.988000;0.2996;0.5717;0.7112;0.960
3.994000;0.2565;0.5163;0.7616;0.955
3.998000;0.2340;0.4965;0.8096;0.978
4.003000;0.2059;0.4594;0.8243;0.966
4.008000;0.1814;0.4598;0.8128;0.951
4.013000;0.2226;0.4160;0.7872;0.918
4.020000;0.2140;0.3858;0.7691;0.887
4.025000;0.2770;0.3713;0.7059;0.844
4.027000;0.3583;0.2889;0.6693;0.812
4.047000;0.3811;0.2369;0.6616;0.799
4.047000;0.4002;0.1891;0.6661;0.800
4.048000;0.3272;0.2123;0.6636;0.770
4.048000;0.2058;0.2202;0.6637;0.729
4.052000;0.0916;0.2368;0.8313;0.869
4.057000;-0.0056;0.2594;0.5855;0.640
4.062000;-0.0806;0.2786;0.4933;0.572
4.068000;-0.0784;0.2707;0.4420;0.524
4.073000;-0.0732;0.2883;0.2715;0.403
4.077000;-0.0649;0.2983;0.1419;0.337
4.082000;-0.0273;0.3320;0.0030;0.333
4.088000;0.0537;0.3324;-0.1190;0.357
4.092000;0.0703;0.3232;-0.2457;0.412
4.096000;0.1419;0.3360;-0.3102;0.479
4.101000;0.1941;0.3300;-0.4057;0.558
4.106000;0.1981;0.3171;-0.5060;0.629
4.111000;0.1589;0.2830;-0.5608;0.648
4.116000;0.0979;0.2755;-0.6443;0.708
4.121000;0.0747;0.2659;-0.6799;0.734
4.126000;0.0724;0.2754;-0.7848;0.835
4.131000;0.0521;0.2827;-0.9230;0.967
4.144000;0.0138;0.3551;-1.0230;1.083
4.145000;-0.0480;0.4475;-1.1040;1.192
4.145000;-0.0544;0.5246;-1.0706;1.193
4.153000;-0.0532;0.5957;-1.0232;1.185
4.155000;0.0557;0.6300;-0.9093;1.108
4.160000;0.1649;0.5987;-0.8079;1.019
4.166000;0.3419;0.5735;-0.6878;0.959
4.169000;0.4776;0.4945;-0.5610;0.887
4.175000;0.5134;0.4645;-0.4275;0.814
4.179000;0.5723;0.4376;-0.2800;0.773
4.185000;0.5713;0.4304;-0.1136;0.724
4.189000;0.5346;0.4423;0.0620;0.697
4.194000;0.5127;0.3819;0.1587;0.659
4.203000;0.4408;0.3543;0.2172;0.606
4.207000;0.3788;0.3042;0.2113;0.530
4.210000;0.2778;0.2291;0.1914;0.408
4.214000;0.1682;0.1936;0.1240;0.285
4.228000;0.0269;0.1070;0.0809;0.137
4.228000;-0.1156;0.1438;0.0692;0.197
4.229000;-0.1881;0.1511;0.0147;0.242
4.237000;-0.2552;0.1984;0.0225;0.324
4.238000;-0.2524;0.1806;-0.0077;0.310
4.243000;-0.2461;0.1578;0.0028;0.292
4.249000;-0.2261;0.1707;-0.0177;0.284
4.256000;-0.1847;0.1811;-0.0094;0.259
4.259000;-0.1787;0.1965;0.0059;0.266
4.263000;-0.1814;0.2097;0.0164;0.278
4.270000;-0.1709;0.2374;0.0004;0.293
4.272000;-0.1591;0.2367;-0.0322;0.287
4.278000;-0.1168;0.2362;-0.0769;0.275
4.283000;-0.1135;0.2167;-0.1216;0.273
4.287000;-0.1017;0.2142;-0.1281;0.270
4.292000;-0.0863;0.2405;-0.1561;0.299
4.297000;-0.1465;0.2474;-0.1840;0.341
4.304000;-0.2035;0.2705;-0.2380;0.414
4.307000;-0.2958;0.2905;-0.2655;0.492
4.311000;-0.3142;0.3143;-0.3452;0.563
4.321000;-0.3665;0.3176;-0.4174;0.640
4.322000;-0.3741;0.3605;-0.5584;0.763
4.326000;-0.3709;0.3401;-0.7228;0.881
4.332000;-0.3118;0.3739;-0.8104;0.945
4.337000;-0.2824;0.3925;-0.9644;1.079
4.341000;-0.2494;0.4180;-1.1206;1.222
4.346000;-0.2340;0.4412;-1.2886;1.382
4.352000;-0.2246;0.4816;-1.4421;1.537
4.356000;-0.2360;0.5229;-1.5049;1.611
4.361000;-0.2393;0.5613;-1.5490;1.665
4.366000;-0.2371;0.5587;-1.5745;1.687
4.370000;-0.2125;0.5417;-1.4716;1.582
4.375000;-0.1821;0.5676;-1.3622;1.487
4.381000;-0.1430;0.5722;-1.2012;1.338
4.385000;-0.1044;0.5434;-0.9836;1.129
4.390000;-0.0989;0.5571;-0.7860;0.969
4.396000;-0.0446;0.4984;-0.5747;0.762
4.402000;-0.0100;0.4550;-0.3807;0.593
4.405000;-0.0214;0.3741;-0.1872;0.419
4.410000;-0.0760;0.3486;-0.0537;0.361
4.415000;-0.1618;0.3089;0.1011;0.363
4.421000;-0.2767;0.2925;0.1841;0.443
4.427000;-0.4089;0.2705;0.2649;0.557
4.429000;-0.4871;0.2351;0.2671;0.603
4.449000;-0.5839;0.1985;0.1885;0.645
4.450000;-0.6162;0.1771;0.1151;0.651
4.450000;-0.6347;0.1712;-0.0439;0.659
4.451000;-0.6543;0.2092;-0.1401;0.701
4.454000;-0.6372;0.2130;-0.2670;0.723
4.458000;-0.5763;0.2760;-0.3913;0.749
4.464000;-0.5096;0.3005;-0.5034;0.777
4.469000;-0.4533;0.3491;-0.6034;0.832
4.474000;-0.3947;0.3621;-0.7297;0.905
4.479000;-0.3140;0.4022;-0.7677;0.922
4.485000;-0.2875;0.4383;-0.7986;0.955
4.488000;-0.2624;0.4970;-0.8418;1.012
4.494000;-0.2646;0.5280;-0.8326;1.021
4.498000;-0.2801;0.5571;-0.8165;1.027
4.503000;-0.3184;0.5821;-0.8005;1.040
4.508000;-0.3752;0.6074;-0.7942;1.068
4.513000;-0.4147;0.6544;-0.7904;1.107
4.522000;-0.4041;0.7037;-0.7865;1.130
4.523000;-0.3842;0.7291;-0.7922;1.143
4.528000;-0.3554;0.7711;-0.8099;1.173
4.532000;-0.3222;0.7863;-0.7963;1.165
4.553000;-0.2963;0.8442;-0.8400;1.227
4.554000;-0.3161;0.8442;-0.8620;1.247
4.554000;-0.2977;0.8895;-0.8624;1.274
4.555000;-0.2989;0.9367;-0.8579;1.305
4.557000;-0.3100;0.9478;-0.8702;1.324
4.562000;-0.3333;0.9730;-0.9301;1.387
4.567000;-0.3323;0.9453;-0.9803;1.402
4.571000;-0.3553;0.9532;-1.0448;1.458
4.576000;-0.4048;0.9589;-1.1235;1.532
4.582000;-0.4577;0.9886;-1.1161;1.560
4.587000;-0.4879;1.0401;-1.1590;1.632
4.591000;-0.5027;1.0609;-1.1589;1.650
4.597000;-0.5069;1.0514;-1.1137;1.613
4.606000;-0.5290;1.0544;-1.0686;1.592
4.607000;-0.5404;1.0608;-0.9617;1.530
4.612000;-0.5738;1.0297;-0.8886;1.476
4.615000;-0.5667;1.0474;-0.7823;1.425
4.639000;-0.5902;1.0892;-0.6930;1.420
4.640000;-0.5748;1.0549;-0.5632;1.327
4.640000;-0.5560;1.0542;-0.4432;1.272
4.641000;-0.5341;1.0631;-0.3472;1.239
4.641000;-0.5160;1.0885;-0.3158;1.245
4.645000;-0.5165;1.0823;-0.2581;1.227
4.651000;-0.4875;1.1089;-0.2265;1.232
4.656000;-0.4583;1.1085;-0.1685;1.211
4.660000;-0.4173;1.1070;-0.1366;1.191
4.664000;-0.3839;1.1115;-0.0829;1.179
4.670000;-0.3610;1.1219;-0.0600;1.180
4.674000;-0.3438;1.1476;0.0181;1.198
4.679000;-0.2943;1.2003;0.1325;1.243
4.684000;-0.2414;1.2320;0.2542;1.281
4.688000;-0.1827;1.2688;0.3644;1.333
4.695000;-0.1205;1.3059;0.4081;1.373
4.699000;-0.1148;1.3144;0.3973;1.378
4.704000;-0.0644;1.3069;0.3440;1.353
4.708000;-0.0076;1.2861;0.2839;1.317
4.713000;0.0467;1.2429;0.2385;1.266
4.721000;0.0605;1.1513;0.3630;1.209
4.724000;0.0199;1.1337;0.1696;1.147
4.729000;0.0209;1.0783;0.4399;1.165
4.733000;0.0228;1.0158;0.5905;1.175
4.749000;0.0083;0.9995;0.7383;1.243
4.749000;-0.0015;0.9647;0.9933;1.385
4.750000;-0.0805;0.9404;1.3649;1.659
4.753000;-0.0971;0.8932;1.7788;1.993
4.758000;-0.0767;0.8606;2.2590;2.419
4.762000;-0.1257;0.8419;2.6479;2.781
4.767000;-0.1907;0.7856;2.9268;3.036
4.772000;-0.2237;0.7222;3.1462;3.236
4.778000;-0.2158;0.6607;3.2227;3.297
4.782000;-0.1704;0.5723;3.1924;3.248
4.787000;-0.0768;0.5072;3.0627;3.105
4.792000;0.0325;0.3701;2.8718;2.896
4.797000;0.0831;0.3216;2.5839;2.605
4.803000;0.1228;0.3289;2.3017;2.328
4.806000;0.1448;0.3520;2.0680;2.103
4.812000;0.1611;0.3539;1.8729;1.913
4.817000;0.1744;0.4115;1.7233;1.780
4.823000;0.2156;0.3918;1.5855;1.647
4.829000;0.2540;0.3810;1.4545;1.525
4.831000;0.2803;0.3225;1.3040;1.372
4.847000;0.2899;0.2428;1.1864;1.245
4.850000;0.3426;0.1256;1.0823;1.142
4.850000;0.3334;0.0261;0.9847;1.040
4.850000;0.3389;-0.0412;0.9291;0.990
4.857000;0.3109;-0.0979;0.8726;0.931
4.860000;0.2872;-0.1127;0.8413;0.896
4.866000;0.2626;-0.1166;0.8568;0.904
4.873000;0.2580;-0.1025;0.8711;0.914
4.875000;0.2704;-0.1037;0.9823;1.024
4.880000;0.2856;-0.0941;1.1113;1.151
4.886000;0.2943;-0.1574;1.2966;1.339
4.889000;0.3453;-0.2440;1.5261;1.584
4.895000;0.2962;-0.3303;1.7547;1.810
4.900000;0.3033;-0.3723;2.0065;2.063
4.905000;0.2121;-0.4188;2.2031;2.253
4.909000;0.1094;-0.4304;2.3519;2.393
4.914000;0.0238;-0.4197;2.4819;2.517
4.922000;-0.0298;-0.3954;2.5982;2.628
4.924000;-0.0418;-0.4109;2.6080;2.640
4.931000;-0.0124;-0.4149;2.5021;2.536
4.934000;0.0628;-0.4438;2.3047;2.348
4.950000;0.1828;-0.4857;2.0017;2.068
4.950000;0.2391;-0.4711;1.5621;1.649
4.951000;0.3044;-0.4138;1.1269;1.238
4.953000;0.3472;-0.3394;0.6338;0.798
4.959000;0.3615;-0.2754;0.2188;0.504
4.963000;0.3594;-0.2089;-0.1974;0.460
4.968000;0.3885;-0.1915;-0.5719;0.717
4.973000;0.3842;-0.1840;-0.8718;0.970
4.978000;0.3491;-0.2138;-1.1164;1.189
4.983000;0.2864;-0.2255;-1.2847;1.335
4.988000;0.2180;-0.2378;-1.4006;1.437
4.992000;0.1138;-0.2312;-1.4213;1.444
4.998000;0.0483;-0.2364;-1.3664;1.387
5.006000;0.0150;-0.2441;-1.3002;1.323
5.008000;0.0284;-0.2547;-1.1725;1.200
5.012000;0.0937;-0.2733;-1.0407;1.080
5.017000;0.1630;-0.2907;-0.9429;1.000
5.032000;0.2459;-0.3098;-0.8573;0.944
5.033000;0.3277;-0.2999;-0.8460;0.956
5.033000;0.3934;-0.2899;-0.8419;0.973
5.038000;0.4452;-0.2702;-0.8856;1.027
5.041000;0.4777;-0.2267;-0.9077;1.050
5.047000;0.4788;-0.1859;-1.0038;1.128
5.052000;0.4720;-0.1905;-1.1116;1.223
5.059000;0.4428;-0.1805;-1.2434;1.332
5.061000;0.3980;-0.2080;-1.3441;1.417
5.066000;0.3209;-0.2203;-1.4951;1.545
5.071000;0.2429;-0.2719;-1.5843;1.626
5.075000;0.1067;-0.3336;-1.6715;1.708
5.081000;-0.0492;-0.3478;-1.7067;1.743
5.086000;-0.1960;-0.3884;-1.7164;1.771
5.090000;-0.3304;-0.4315;-1.7148;1.799
5.096000;-0.5145;-0.4748;-1.6398;1.783
5.101000;-0.6166;-0.4993;-1.5106;1.706
5.106000;-0.7085;-0.5149;-1.3463;1.606
5.111000;-0.7667;-0.4985;-1.1872;1.499
5.115000;-0.7600;-0.4602;-1.0165;1.350
5.123000;-0.7603;-0.3912;-0.9176;1.254
5.125000;-0.6865;-0.2966;-0.8449;1.128
5.129000;-0.5772;-0.2414;-0.7768;0.997
5.135000;-0.4328;-0.1825;-0.7776;0.908
5.153000;-0.2634;-0.1659;-0.8043;0.862
5.154000;-0.1057;-0.1599;-0.7996;0.822
5.154000;0.0398;-0.1121;-0.8471;0.855
5.155000;0.1201;-0.0652;-0.9278;0.938
5.159000;0.1759;-0.0046;-1.0226;1.038
5.164000;0.2264;0.0531;-1.0932;1.118
5.169000;0.2674;0.1157;-1.2213;1.256
5.173000;0.2490;0.1789;-1.2920;1.328
5.179000;0.2491;0.2190;-1.3438;1.384
5.185000;0.2277;0.2148;-1.3648;1.400
5.188000;0.2528;0.2119;-1.3241;1.365
5.193000;0.2412;0.1911;-1.1929;1.232
5.198000;0.1876;0.1978;-1.0790;1.113
5.204000;0.1140;0.2055;-0.9153;0.945
5.208000;0.0346;0.2112;-0.7376;0.768
5.213000;-0.0119;0.2119;-0.6007;0.637
5.218000;-0.0037;0.2094;-0.4732;0.517
5.223000;0.0422;0.1723;-0.4148;0.451
5.228000;0.1015;0.1670;-0.3942;0.440
5.233000;0.1451;0.1887;-0.4400;0.500
5.249000;0.1581;0.2398;-0.5712;0.639
5.249000;0.1714;0.2896;-0.6971;0.774
5.250000;0.2231;0.4388;-0.8226;0.959
5.252000;0.3200;0.4965;-0.9191;1.093
5.259000;0.3541;0.5706;-0.9724;1.182
5.263000;0.3798;0.6351;-1.0136;1.255
5.267000;0.3945;0.7167;-1.0406;1.324
5.273000;0.4219;0.7842;-1.0462;1.374
5.277000;0.4453;0.8475;-1.0592;1.428
5.282000;0.4414;0.8948;-1.0437;1.444
5.286000;0.4397;0.8736;-0.9688;1.377
5.291000;0.4602;0.8221;-0.8321;1.257
5.296000;0.4459;0.7929;-0.6838;1.138
5.301000;0.4261;0.7521;-0.5381;1.018
5.307000;0.3773;0.7158;-0.3950;0.900
5.311000;0.3263;0.6815;-0.2877;0.809
5.315000;0.2518;0.6730;-0.1756;0.740
5.324000;0.1541;0.6204;-0.0801;0.644
5.326000;0.0691;0.5978;-0.0799;0.607
5.330000;0.0157;0.6816;0.0235;0.682
5.335000;-0.0053;0.7880;0.1056;0.795
5.361000;-0.0310;0.8169;0.0566;0.819
5.361000;-0.0090;0.8324;0.0438;0.834
5.362000;0.0316;0.8206;0.0291;0.822
5.362000;0.0760;0.8244;0.0004;0.828
5.362000;0.1213;0.8324;-0.0113;0.841
5.366000;0.1815;0.8303;-0.0611;0.852
5.371000;0.2180;0.8207;-0.0510;0.851
5.375000;0.2523;0.8565;-0.0386;0.894
5.379000;0.2938;0.8404;-0.0120;0.890
5.384000;0.3401;0.7751;-0.0408;0.847
5.389000;0.3319;0.7633;0.1165;0.840
5.394000;0.2628;0.7212;0.3427;0.841
5.399000;0.2317;0.6611;0.4416;0.828
5.405000;0.1196;0.5926;0.6237;0.869
5.411000;0.0037;0.5391;0.8365;0.995
5.414000;-0.1317;0.5405;0.9534;1.104
5.419000;-0.2399;0.5797;1.0680;1.239
5.424000;-0.3424;0.5941;1.1183;1.312
5.428000;-0.4290;0.6097;1.1403;1.362
5.434000;-0.4505;0.5903;1.0911;1.320
5.453000;-0.4318;0.5217;1.0282;1.231
5.454000;-0.3293;0.4397;0.9397;1.088
5.454000;-0.1944;0.3686;0.8349;0.933
5.455000;-0.1144;0.2584;0.7617;0.812
5.458000;-0.0988;0.1882;0.6983;0.730
5.463000;-0.1844;0.2061;0.6088;0.669
5.468000;-0.2524;0.3165;0.5676;0.697
5.472000;-0.3464;0.4025;0.5170;0.741
5.477000;-0.4483;0.4693;0.4115;0.768
5.483000;-0.5779;0.4888;0.2534;0.798
5.488000;-0.6134;0.4592;0.1404;0.779
5.492000;-0.5887;0.4217;0.0437;0.725
5.497000;-0.5177;0.3739;-0.0320;0.639
5.502000;-0.4002;0.3138;-0.1202;0.523
5.507000;-0.2787;0.2627;-0.2018;0.433
5.512000;-0.2125;0.1682;-0.3126;0.414
5.517000;-0.1702;0.0976;-0.3739;0.422
5.524000;-0.1329;0.1132;-0.3811;0.419
5.526000;-0.0359;0.0959;-0.3558;0.370
5.533000;0.0580;0.0790;-0.2551;0.273
5.536000;0.2059;0.0198;-0.1292;0.244
5.548000;0.2977;-0.0609;0.0003;0.304
5.549000;0.3981;-0.1393;0.1194;0.438
5.551000;0.4686;-0.2253;0.1732;0.548
5.559000;0.4539;-0.3145;0.2742;0.617
5.563000;0.2777;-0.3690;0.3245;0.564
5.566000;0.1248;-0.4537;0.3960;0.615
5.571000;-0.0278;-0.5118;0.5247;0.734
5.576000;-0.2373;-0.5605;0.6152;0.865
5.581000;-0.4125;-0.5905;0.7250;1.022
5.586000;-0.5535;-0.6239;0.8110;1.163
5.592000;-0.6720;-0.6444;0.8044;1.230
5.595000;-0.7680;-0.6185;0.8269;1.287
5.600000;-0.8059;-0.6039;0.8022;1.288
5.605000;-0.8269;-0.5866;0.7400;1.255
5.610000;-0.8076;-0.5024;0.6882;1.174
5.615000;-0.7437;-0.4012;0.5559;1.011
5.620000;-0.6288;-0.3093;0.3669;0.791
5.625000;-0.5493;-0.1835;0.2026;0.614
5.629000;-0.4073;-0.0807;0.0126;0.415
5.634000;-0.2555;0.0186;-0.1219;0.284
5.650000;-0.0871;0.0286;-0.1867;0.208
5.650000;0.0316;0.0002;-0.1319;0.136
5.651000;0.0653;-0.1049;-0.0533;0.135
5.655000;0.0314;-0.1814;0.0254;0.186
5.658000;-0.0715;-0.3061;0.0970;0.329
5.663000;-0.1860;-0.3691;0.1615;0.444
5.669000;-0.3173;-0.4208;0.2358;0.577
5.673000;-0.4250;-0.4371;0.2456;0.657
5.678000;-0.4975;-0.4371;0.1935;0.690
5.683000;-0.5113;-0.4419;0.1391;0.690
5.689000;-0.4167;-0.4514;0.1062;0.623
5.693000;-0.3072;-0.4742;0.0540;0.568
5.698000;-0.1208;-0.4600;-0.0606;0.479
5.703000;0.0257;-0.4847;-0.1277;0.502
5.708000;0.2021;-0.5218;-0.1929;0.592
5.712000;0.3807;-0.5374;-0.2610;0.708
5.718000;0.4645;-0.5435;-0.2461;0.756
5.725000;0.5072;-0.5447;-0.1698;0.763
5.733000;0.5379;-0.5581;-0.0273;0.776
5.734000;0.4995;-0.5097;0.1407;0.727
5.737000;0.4493;-0.4147;0.3272;0.693
5.760000;0.4019;-0.3315;0.4896;0.715
5.760000;0.4282;-0.3395;0.6589;0.856
5.761000;0.4982;-0.3461;0.7376;0.955
5.761000;0.5029;-0.3255;0.5825;0.836
5.761000;0.4783;-0.3622;0.3852;0.713
5.766000;0.4615;-0.3771;0.2320;0.640
5.775000;0.4020;-0.3296;-0.0591;0.523
5.777000;0.3399;-0.2698;-0.3444;0.554
5.781000;0.2130;-0.2636;-0.6744;0.755
5.786000;0.0963;-0.2721;-0.8677;0.914
5.793000;0.0364;-0.2805;-0.9246;0.967
5.796000;-0.0092;-0.3127;-0.8955;0.949
5.801000;-0.0383;-0.3520;-0.9310;0.996
5.808000;-0.1202;-0.4293;-0.9642;1.062
5.810000;-0.4008;-0.7095;-1.1290;1.392
5.816000;-1.0077;-1.2606;-1.3131;2.081
5.821000;-1.2106;-1.2375;-1.1584;2.083
5.834000;-1.4753;-0.6060;-0.8897;1.826
5.835000;-1.4493;-0.0208;-0.6166;1.575
5.835000;-1.1675;0.1988;-0.4819;1.279
5.841000;-0.6889;0.0502;-0.5259;0.868
5.845000;-0.2227;-0.1240;-0.7533;0.795
5.850000;0.2385;-0.2606;-1.0828;1.139
5.855000;0.5239;-0.3109;-1.3976;1.525
5.860000;0.5869;-0.2027;-1.6213;1.736
5.865000;0.4873;0.0144;-1.6947;1.763
5.869000;0.3797;0.2569;-1.6968;1.758
5.874000;0.3064;0.3817;-1.6994;1.768
5.879000;0.2529;0.4007;-1.6881;1.753
5.884000;0.2164;0.3240;-1.6918;1.736
5.888000;0.2183;0.2430;-1.6651;1.697
5.893000;0.1948;0.1096;-1.5722;1.588
5.899000;0.1133;-0.0093;-1.3031;1.308
5.903000;0.0129;-0.1049;-1.0396;1.045
5.909000;-0.1351;-0.0939;-0.7193;0.738
5.913000;-0.3111;-0.0349;-0.4114;0.517
5.918000;-0.4505;0.0669;-0.0919;0.465
5.926000;-0.4888;0.1531;0.1105;0.524
5.928000;-0.5123;0.1732;0.2677;0.603
5.933000;-0.4925;0.1863;0.3775;0.648
5.962000;-0.4373;0.1565;0.4256;0.630
5.963000;-0.3849;0.1598;0.4864;0.641
5.963000;-0.2969;0.1485;0.4164;0.533
5.964000;-0.2707;0.1987;0.3783;0.506
5.964000;-0.2610;0.2344;0.3648;0.506
5.964000;-0.2795;0.2845;0.2778;0.486
5.967000;-0.3118;0.2989;0.1007;0.443
5.973000;-0.4078;0.2827;-0.0782;0.502
5.977000;-0.5907;0.2053;-0.3449;0.714
5.982000;-0.9462;-0.0281;-0.6662;1.158
5.987000;-0.8951;-0.0700;-0.8700;1.250
5.993000;-0.7328;-0.0083;-1.0618;1.290
5.997000;-0.6410;0.1814;-1.1965;1.370
6.002000;-0.6788;0.3489;-1.2790;1.489
6.007000;-0.8265;0.3990;-1.3072;1.597
6.012000;-0.8638;0.3796;-1.2044;1.530
6.016000;-0.7599;0.3050;-1.0618;1.341
6.022000;-0.6420;0.2612;-0.7216;1.001
6.030000;-0.5039;0.2530;-0.2819;0.630
6.031000;-0.3465;0.2718;0.1498;0.465
6.036000;-0.2278;0.2640;0.5311;0.635
6.055000;-0.1223;0.2498;0.8836;0.926
6.056000;-0.0045;0.2163;1.1862;1.206
6.056000;0.0860;0.1989;1.2240;1.243
6.057000;0.1628;0.1136;1.8339;1.845
6.060000;0.2493;0.1127;1.8371;1.857
6.065000;0.2688;0.0339;1.9179;1.937
6.070000;0.2820;-0.0415;2.0115;2.032
6.075000;0.2357;-0.0753;1.9411;1.957
6.080000;0.2086;-0.0169;1.8718;1.883
6.085000;0.1306;0.0576;1.7722;1.778
6.089000;0.0571;0.1512;1.6088;1.617
6.095000;0.0814;0.1860;1.4556;1.470
6.100000;0.1553;0.1387;1.3530;1.369
6.105000;0.3146;-0.0494;1.2505;1.290
6.111000;0.4566;-0.2296;1.2221;1.325
6.114000;0.5532;-0.3891;1.2316;1.405
6.119000;0.5783;-0.4209;1.2696;1.457
6.126000;0.5803;-0.3845;1.2666;1.445
6.129000;0.5596;-0.2926;1.2419;1.393
6.136000;0.4893;-0.1757;1.2336;1.339
6.166000;0.4645;-0.0534;1.1655;1.256
6.168000;0.4240;0.0222;1.0612;1.143
6.168000;0.4603;0.1086;1.0238;1.128
6.168000;0.5166;0.1389;0.9526;1.093
6.169000;0.5923;0.1301;0.8596;1.052
6.169000;0.6764;0.1158;0.8189;1.068
6.169000;0.7808;0.1175;0.7922;1.118
6.173000;0.8835;0.1158;0.7316;1.153
6.178000;1.0036;0.0871;0.6539;1.201
6.183000;1.1126;-0.0189;0.5902;1.260
6.188000;1.2659;-0.1562;0.6001;1.410
6.193000;1.4259;-0.3794;0.6212;1.601
6.197000;1.5476;-0.5925;0.6702;1.788
6.203000;1.6392;-0.7885;0.7853;1.981
6.210000;1.6537;-0.9553;0.9473;2.132
6.212000;1.5375;-1.0573;1.1274;2.180
6.217000;1.2990;-1.0545;1.3905;2.176
6.223000;1.0381;-1.0486;1.5718;2.156
6.239000;0.6913;-0.9878;1.6596;2.051
6.240000;0.3638;-0.8608;1.6352;1.883
6.240000;0.1607;-0.8447;1.5919;1.809
6.241000;0.0146;-0.7919;1.5109;1.706
6.246000;-0.0821;-0.7818;1.4233;1.626
6.252000;-0.1572;-0.7859;1.2816;1.512
6.256000;-0.1998;-0.7854;1.1409;1.399
6.261000;-0.2281;-0.7950;0.9462;1.257
6.266000;-0.2834;-0.7265;0.7910;1.111
6.271000;-0.3480;-0.6657;0.6321;0.982
6.276000;-0.4037;-0.5457;0.4478;0.813
6.281000;-0.4468;-0.4450;0.3242;0.709
6.286000;-0.4346;-0.3586;0.1608;0.586
6.290000;-0.4608;-0.3387;-0.0378;0.573
6.295000;-0.4679;-0.2678;-0.2070;0.577
6.300000;-0.5031;-0.2478;-0.4164;0.699
6.305000;-0.4319;-0.1779;-0.5753;0.741
6.310000;-0.3732;-0.1822;-0.7149;0.827
6.315000;-0.2856;-0.1523;-0.7996;0.863
6.320000;-0.2213;-0.1358;-0.8604;0.899
6.327000;-0.1030;-0.0892;-0.8690;0.880
6.330000;-0.0150;-0.1083;-0.8515;0.859
6.334000;0.1344;-0.1164;-0.7892;0.809
6.368000;0.2590;-0.1496;-0.7582;0.815
6.369000;0.3999;-0.1840;-0.7634;0.881
6.369000;0.4715;-0.2149;-0.6972;0.869
6.370000;0.5408;-0.1921;-0.6505;0.867
6.370000;0.5673;-0.1756;-0.6160;0.856
6.370000;0.5849;-0.1392;-0.5626;0.823
6.371000;0.5293;-0.1142;-0.5429;0.767
6.373000;0.4658;-0.0814;-0.5091;0.695
6.378000;0.3536;-0.0434;-0.4659;0.586
6.384000;0.2456;-0.0122;-0.4014;0.471
6.389000;0.1439;-0.0098;-0.3728;0.400
6.393000;0.0371;-0.0099;-0.3705;0.372
6.399000;-0.0725;-0.0345;-0.3919;0.400
6.403000;-0.1846;-0.0669;-0.4730;0.512
6.410000;-0.2470;-0.1001;-0.5584;0.619
6.413000;-0.2934;-0.1029;-0.6890;0.756
6.418000;-0.3144;-0.0754;-0.7905;0.854
6.423000;-0.3273;-0.0556;-0.9490;1.005
6.440000;-0.3253;-0.0242;-1.0930;1.141
6.441000;-0.3184;-0.0164;-1.2273;1.268
6.441000;-0.3119;-0.0129;-1.3568;1.392
6.442000;-0.2915;0.0250;-1.4649;1.494
6.447000;-0.2482;0.0068;-1.5160;1.536
6.452000;-0.2227;0.0213;-1.5794;1.595
6.458000;-0.1576;0.0232;-1.5907;1.599
6.463000;-0.1384;0.0438;-1.5787;1.585
6.467000;-0.1527;0.0303;-1.5099;1.518
6.472000;-0.1763;0.0210;-1.4156;1.427
6.477000;-0.1779;0.0537;-1.3553;1.368
6.482000;-0.1857;0.0757;-1.2692;1.285
6.487000;-0.1208;0.0771;-1.1645;1.173
6.491000;-0.0785;0.0649;-1.1079;1.113
6.496000;-0.0425;0.0770;-1.0516;1.055
6.502000;0.0130;0.0797;-0.9261;0.930
6.506000;0.1142;0.0921;-0.8200;0.833
6.511000;0.1729;0.1024;-0.6997;0.728
6.516000;0.2417;0.1362;-0.5651;0.630
6.521000;0.3233;0.1765;-0.4760;0.602
6.529000;0.4154;0.1919;-0.3723;0.590
6.533000;0.4746;0.2301;-0.3664;0.642
6.535000;0.5008;0.2676;-0.3484;0.666
6.540000;0.5085;0.3378;-0.3636;0.711
6.545000;0.4833;0.3955;-0.4050;0.744
6.585000;0.4374;0.3999;-0.4078;0.719
6.586000;0.4020;0.4349;-0.4799;0.762
6.586000;0.3364;0.4479;-0.5684;0.798
6.587000;0.2860;0.4653;-0.6497;0.849
6.587000;0.2338;0.4660;-0.6997;0.873
6.587000;0.2200;0.4357;-0.7281;0.877
6.588000;0.1563;0.4149;-0.7565;0.877
6.588000;0.1000;0.3989;-0.7371;0.844
6.589000;0.0776;0.4380;-0.7273;0.853
6.595000;0.0600;0.4461;-0.7008;0.833
6.599000;0.0711;0.4613;-0.6479;0.799
6.605000;0.0583;0.4335;-0.6191;0.758
6.610000;0.0599;0.4154;-0.5568;0.697
6.614000;0.0162;0.3925;-0.5114;0.645
6.620000;-0.0078;0.3552;-0.4253;0.554
6.634000;-0.0552;0.3467;-0.3441;0.492
6.634000;-0.0897;0.3475;-0.2964;0.465
6.635000;-0.1257;0.3408;-0.2582;0.446
6.639000;-0.1441;0.3576;-0.2772;0.475
6.643000;-0.1647;0.3716;-0.2531;0.479
6.649000;-0.1611;0.4019;-0.2001;0.477
6.653000;-0.1534;0.4174;-0.1710;0.476
6.658000;-0.1204;0.4277;-0.1226;0.461
6.662000;-0.1154;0.4231;-0.0383;0.440
6.668000;-0.0982;0.4324;0.1130;0.458
6.673000;-0.0643;0.4245;0.2691;0.507
6.678000;-0.0521;0.4013;0.4826;0.630
6.682000;-0.0352;0.3796;0.6674;0.769
6.687000;0.0416;0.3663;0.8596;0.935
6.693000;0.2385;0.3134;1.0066;1.081
6.697000;0.3959;0.2399;1.1085;1.201
6.702000;0.2853;0.2007;1.0697;1.125
6.707000;0.1354;0.2199;1.0937;1.124
6.712000;-0.0172;0.2712;1.0249;1.060
6.717000;-0.0405;0.3690;1.1095;1.170
6.721000;-0.0653;0.4949;0.7377;0.891
6.749000;-0.1304;0.6489;0.5985;0.892
6.750000;-0.1478;0.6761;0.6554;0.953
6.750000;-0.0667;0.6610;0.5519;0.864
6.750000;0.0400;0.6253;0.5295;0.820
6.751000;0.2336;0.5930;0.4830;0.800
6.751000;0.3995;0.5400;0.4386;0.802
6.756000;0.5075;0.5571;0.3630;0.837
6.762000;0.5515;0.5868;0.2777;0.852
6.765000;0.5652;0.6149;0.1637;0.851
6.770000;0.5433;0.6104;0.0590;0.819
6.776000;0.5306;0.5790;-0.0748;0.789
6.780000;0.4950;0.5141;-0.1638;0.732
6.785000;0.4356;0.4664;-0.2586;0.689
6.790000;0.3514;0.3624;-0.2731;0.574
6.795000;0.2259;0.2837;-0.2197;0.424
6.800000;0.1092;0.2280;-0.1414;0.290
6.805000;0.0116;0.1709;0.0168;0.172
6.811000;-0.0257;0.1029;0.1235;0.163
6.817000;-0.0263;-0.0145;0.3032;0.305
6.819000;0.0500;-0.1908;0.4911;0.529
6.841000;0.0673;-0.3591;0.6922;0.783
6.841000;0.1426;-0.5575;0.9113;1.078
6.842000;0.1315;-0.7298;1.1438;1.363
6.842000;0.1158;-0.8547;1.3733;1.622
6.844000;-0.0061;-0.9092;1.6405;1.876
6.848000;-0.1119;-0.9133;1.9100;2.120
6.854000;-0.3373;-0.8516;2.0959;2.287
6.859000;-0.5811;-0.7797;2.2513;2.452
6.866000;-0.8141;-0.7689;2.3694;2.621
6.869000;-0.9976;-0.7761;2.3810;2.696
6.873000;-1.1388;-0.7715;2.3368;2.712
6.879000;-1.2475;-0.7862;2.2129;2.659
6.884000;-1.2911;-0.7631;1.9545;2.464
6.888000;-1.3060;-0.7334;1.6861;2.255
6.894000;-1.3085;-0.6940;1.3334;1.993
6.899000;-1.2402;-0.6205;0.9346;1.672
6.903000;-1.1890;-0.5596;0.5706;1.433
6.908000;-1.0958;-0.4653;0.2125;1.209
6.912000;-0.9973;-0.3819;-0.0850;1.071
6.920000;-0.8626;-0.3011;-0.3463;0.977
6.922000;-0.7416;-0.3059;-0.5382;0.966
6.943000;-0.6029;-0.3094;-0.7040;0.977
6.944000;-0.4838;-0.3038;-0.7865;0.972
6.944000;-0.3837;-0.3244;-0.7692;0.919
6.944000;-0.3448;-0.3328;-0.7575;0.896
6.947000;-0.2969;-0.3554;-0.6677;0.813
6.952000;-0.2897;-0.4067;-0.5477;0.741
6.956000;-0.2415;-0.4366;-0.3591;0.615
6.963000;-0.2027;-0.4696;-0.2095;0.553
6.966000;-0.1468;-0.5203;-0.0271;0.541
6.971000;-0.0784;-0.5679;0.1503;0.593
6.977000;0.0264;-0.6104;0.2819;0.673
6.981000;0.1365;-0.6602;0.3847;0.776
6.986000;0.2495;-0.6748;0.4471;0.847
6.991000;0.3053;-0.6713;0.4643;0.871
6.996000;0.3782;-0.6235;0.4316;0.847
7.001000;0.3795;-0.5720;0.3563;0.773
7.006000;0.4127;-0.5434;0.2361;0.722
7.012000;0.3914;-0.4728;0.1306;0.628
7.015000;0.3903;-0.4605;-0.0318;0.604
7.020000;0.3615;-0.4631;-0.1652;0.610
7.045000;0.2954;-0.4493;-0.3270;0.629
7.046000;0.2395;-0.4738;-0.4671;0.707
7.046000;0.1652;-0.4765;-0.5067;0.715
7.046000;0.0939;-0.4836;-0.5750;0.757
7.047000;0.0374;-0.4926;-0.6148;0.789
7.050000;-0.0138;-0.5227;-0.6092;0.803
7.054000;-0.0431;-0.5332;-0.5823;0.791
7.060000;-0.0627;-0.5054;-0.5267;0.733
7.064000;-0.0632;-0.4774;-0.4641;0.669
7.069000;-0.0758;-0.4472;-0.4541;0.642
7.074000;-0.1167;-0.4127;-0.4081;0.592
7.079000;-0.1543;-0.3692;-0.3908;0.559
7.086000;-0.1716;-0.3217;-0.4473;0.577
7.089000;-0.2331;-0.2489;-0.5346;0.634
7.094000;-0.3053;-0.2077;-0.6432;0.742
7.098000;-0.3335;-0.1743;-0.7611;0.849
7.104000;-0.3756;-0.1673;-0.9123;1.001
7.108000;-0.3960;-0.1172;-1.0083;1.090
7.113000;-0.4407;-0.0881;-1.0853;1.175
7.119000;-0.4406;-0.1255;-1.1695;1.256
7.123000;-0.4752;-0.1406;-1.1987;1.297
7.128000;-0.4778;-0.1695;-1.2042;1.307
7.133000;-0.5249;-0.1640;-1.1788;1.301
7.138000;-0.4995;-0.1290;-1.0796;1.197
7.163000;-0.4638;-0.0979;-0.9855;1.094
7.163000;-0.4130;-0.0258;-0.8796;0.972
7.164000;-0.3609;-0.0488;-0.7812;0.862
7.164000;-0.3170;-0.0094;-0.7115;0.779
7.164000;-0.3213;0.0323;-0.6324;0.710
7.167000;-0.2851;0.0647;-0.5750;0.645
7.172000;-0.3037;0.1065;-0.5391;0.628
7.178000;-0.3312;0.1362;-0.4960;0.612
7.182000;-0.3631;0.1444;-0.4769;0.617
7.187000;-0.3627;0.1644;-0.4650;0.612
7.192000;-0.3632;0.1556;-0.4843;0.625
7.196000;-0.3576;0.1422;-0.5202;0.647
7.202000;-0.3415;0.1073;-0.5515;0.657
7.206000;-0.3917;0.1396;-0.5851;0.718
7.211000;-0.3843;0.1840;-0.6140;0.747
7.216000;-0.3746;0.2357;-0.6453;0.783
7.221000;-0.3343;0.3021;-0.6360;0.779
7.226000;-0.3166;0.3829;-0.6339;0.805
7.230000;-0.2836;0.4807;-0.6080;0.825
7.235000;-0.2517;0.5188;-0.5725;0.813
7.241000;-0.2089;0.5641;-0.4893;0.775
7.257000;-0.1402;0.5856;-0.4037;0.725
7.258000;-0.1556;0.5950;-0.3253;0.696
7.258000;-0.1872;0.5633;-0.2637;0.650
7.267000;-0.2342;0.5481;-0.2308;0.639
7.268000;-0.3292;0.5297;-0.1787;0.649
7.270000;-0.3857;0.5296;-0.1241;0.667
7.275000;-0.4684;0.5238;-0.1197;0.713
7.280000;-0.5373;0.5146;-0.1604;0.761
7.284000;-0.5573;0.5310;-0.1938;0.794
7.289000;-0.5915;0.5492;-0.2437;0.843
7.295000;-0.6161;0.5308;-0.2934;0.865
7.299000;-0.6930;0.4904;-0.3142;0.905
7.305000;-0.7579;0.4399;-0.3347;0.938
7.313000;-0.7677;0.4367;-0.3599;0.954
7.315000;-0.7228;0.4667;-0.3969;0.948
7.319000;-0.7051;0.4797;-0.4337;0.957
7.324000;-0.6740;0.4735;-0.4728;0.950
7.328000;-0.6348;0.4676;-0.4473;0.907
7.356000;-0.5780;0.4743;-0.4077;0.852
7.357000;-0.5011;0.4266;-0.3276;0.735
7.357000;-0.4329;0.3796;-0.2214;0.617
7.357000;-0.4064;0.2351;-0.0460;0.472
7.358000;-0.4141;0.2801;0.0859;0.507
7.358000;-0.3858;0.3180;0.2727;0.570
7.366000;-0.2747;0.3773;0.5119;0.693
7.367000;-0.2538;0.3428;0.7271;0.843
7.373000;-0.2965;0.2428;0.8755;0.956
7.378000;-0.3084;0.1226;0.9859;1.040
7.383000;-0.3573;0.0870;1.1061;1.166
7.387000;-0.4616;0.2048;0.9303;1.059
7.394000;-0.5420;0.2511;1.0540;1.211
7.397000;-0.6012;0.2432;1.0034;1.195
7.402000;-0.6087;0.2530;0.8313;1.061
7.407000;-0.4915;0.2237;0.7576;0.930
7.412000;-0.3297;0.1682;0.7152;0.805
7.417000;-0.0999;0.1394;0.7540;0.773
7.422000;0.0810;0.1234;0.8357;0.849
7.430000;0.2456;0.0915;0.8787;0.917
7.431000;0.3263;0.1059;0.9571;1.017
7.437000;0.4208;0.1642;1.0062;1.103
7.473000;0.5456;0.3067;1.0428;1.216
7.474000;0.6683;0.4194;1.0358;1.302
7.474000;0.7588;0.4954;1.0210;1.365
7.475000;0.8495;0.5400;0.9768;1.403
7.475000;0.9996;0.5106;0.9344;1.460
7.475000;1.1836;0.4532;0.8840;1.545
7.476000;1.3436;0.3444;0.8590;1.631
7.477000;1.4718;0.1798;0.8402;1.704
7.483000;1.5830;0.0287;0.8372;1.791
7.486000;1.6561;-0.1758;0.8427;1.866
7.491000;1.6966;-0.3474;0.9189;1.961
7.496000;1.6221;-0.5654;1.0418;2.009
7.500000;1.4977;-0.7223;1.2758;2.096
7.505000;1.2941;-0.8357;1.5017;2.151
7.513000;1.0338;-0.9233;1.7792;2.255
7.520000;0.7372;-0.9796;1.9846;2.333
7.521000;0.4483;-1.0269;2.1778;2.449
7.525000;0.1407;-1.0928;2.2827;2.535
7.558000;-0.1834;-1.1065;2.3021;2.561
7.559000;-0.4319;-1.1144;2.3033;2.595
7.559000;-0.6028;-1.1027;2.1742;2.511
7.560000;-0.7213;-1.0982;1.9868;2.382
7.560000;-0.7953;-1.0435;1.7723;2.205
7.561000;-0.8215;-0.9460;1.4567;1.921
7.561000;-0.7460;-0.8648;1.0878;1.577
7.565000;-0.6274;-0.7851;0.7276;1.241
7.569000;-0.4901;-0.6845;0.3569;0.914
7.576000;-0.3853;-0.5836;0.0471;0.701
7.580000;-0.2388;-0.4839;-0.2284;0.586
7.584000;-0.0819;-0.4183;-0.5057;0.661
7.589000;0.0500;-0.3697;-0.7299;0.820
7.594000;0.1713;-0.3397;-0.8463;0.928
7.600000;0.2292;-0.3302;-0.9341;1.017
7.603000;0.3053;-0.3571;-0.9624;1.071
7.608000;0.3038;-0.3846;-0.8860;1.012
7.615000;0.3283;-0.4316;-0.7814;0.951
7.618000;0.2859;-0.4842;-0.5840;0.811
7.623000;0.2827;-0.5448;-0.3586;0.711
7.630000;0.2546;-0.5589;-0.1385;0.630
7.632000;0.2258;-0.5865;0.0453;0.630
7.637000;0.2209;-0.5923;0.2073;0.665
7.642000;0.2380;-0.5909;0.3308;0.718
7.676000;0.2774;-0.5180;0.4160;0.720
7.677000;0.3585;-0.4649;0.5084;0.777
7.677000;0.4430;-0.3980;0.5507;0.811
7.677000;0.5336;-0.3320;0.6384;0.896
7.678000;0.6137;-0.2601;0.6450;0.928
7.678000;0.7072;-0.2015;0.6567;0.986
7.678000;0.7402;-0.1350;0.6257;0.979
7.682000;0.7464;-0.0965;0.5091;0.909
7.686000;0.7594;-0.0453;0.4192;0.869
7.692000;0.7405;-0.0939;0.3084;0.808
7.696000;0.7349;-0.0650;0.1455;0.752
7.701000;0.6657;-0.0665;-0.0240;0.669
7.706000;0.5995;-0.0858;-0.2479;0.654
7.714000;0.4907;-0.1157;-0.4330;0.665
7.717000;0.3987;-0.1056;-0.6439;0.765
7.722000;0.2996;-0.1055;-0.7852;0.847
7.725000;0.2409;-0.1317;-0.9166;0.957
7.770000;0.1965;-0.1364;-1.0550;1.082
7.771000;0.1711;-0.1193;-1.1097;1.129
7.771000;0.1981;-0.1068;-1.2169;1.237
7.772000;0.2390;-0.1080;-1.2786;1.305
7.772000;0.2937;-0.0802;-1.3380;1.372
7.772000;0.3196;-0.0399;-1.3783;1.415
7.773000;0.3693;-0.0018;-1.4377;1.484
7.773000;0.4306;-0.0016;-1.4470;1.510
7.773000;0.4828;0.0418;-1.4706;1.548
7.774000;0.5016;0.0758;-1.4752;1.560
7.780000;0.5114;0.1121;-1.5227;1.610
7.787000;0.5288;0.1723;-1.5726;1.668
7.789000;0.5397;0.2039;-1.6320;1.731
7.795000;0.5820;0.2141;-1.7511;1.858
7.799000;0.6005;0.2317;-1.8414;1.951
7.804000;0.5973;0.2403;-1.9318;2.036
7.808000;0.6271;0.2303;-1.9434;2.055
7.816000;0.6654;0.2429;-1.9361;2.062
7.819000;0.6759;0.2776;-1.9122;2.047
7.824000;0.6370;0.2632;-1.8600;1.984
7.831000;0.6394;0.2736;-1.8271;1.955
7.834000;0.6115;0.2804;-1.7947;1.917
7.838000;0.5681;0.2740;-1.7172;1.829
7.843000;0.5311;0.2877;-1.6281;1.737
7.875000;0.5104;0.3099;-1.5586;1.669
7.876000;0.4562;0.2830;-1.4681;1.563
7.876000;0.4333;0.2572;-1.4019;1.490
7.876000;0.3892;0.1944;-1.3051;1.376
7.877000;0.3288;0.1731;-1.1944;1.251
7.877000;0.2874;0.1716;-1.0266;1.080
7.878000;0.2410;0.1947;-0.9047;0.956
7.886000;0.1919;0.2061;-0.7829;0.832
7.887000;0.1521;0.1864;-0.7163;0.756
7.892000;0.1151;0.1550;-0.6618;0.689
7.898000;0.0498;0.1333;-0.5930;0.610
7.902000;0.0281;0.1428;-0.5459;0.565
7.907000;-0.0213;0.1620;-0.4989;0.525
7.913000;-0.0961;0.1600;-0.4665;0.502
7.917000;-0.1413;0.1675;-0.4006;0.457
7.921000;-0.1766;0.1775;-0.3516;0.432
7.927000;-0.2285;0.2164;-0.3266;0.454
7.931000;-0.2424;0.2364;-0.2085;0.398
7.937000;-0.2833;0.2803;-0.1048;0.412
7.941000;-0.2698;0.3027;0.0465;0.408
7.969000;-0.3120;0.3152;0.1642;0.473
7.970000;-0.3236;0.3463;0.3107;0.567
7.970000;-0.3378;0.3454;0.4525;0.662
7.971000;-0.3308;0.3867;0.5394;0.742
7.971000;-0.3242;0.3911;0.6528;0.827
7.971000;-0.3035;0.3943;0.7545;0.904
7.975000;-0.2995;0.4057;0.8516;0.990
7.980000;-0.2665;0.4185;0.9299;1.054
7.986000;-0.2257;0.4087;1.0226;1.124
7.990000;-0.2245;0.4003;1.1537;1.242
7.996000;-0.1954;0.4289;1.2325;1.320
8.000000;-0.2213;0.4706;1.2947;1.395
8.005000;-0.3094;0.5202;1.4169;1.541
8.010000;-0.3523;0.6206;1.4797;1.643
8.015000;-0.3962;0.6978;1.4665;1.672
8.020000;-0.3777;0.7250;1.3917;1.614
8.024000;-0.3121;0.6790;1.3200;1.517
8.031000;-0.1643;0.6100;1.1915;1.349
8.034000;-0.0230;0.5521;1.0708;1.205
8.039000;0.1408;0.5506;0.9458;1.103
8.066000;0.2655;0.5489;0.8091;1.013
8.066000;0.3396;0.5446;0.3620;0.737
8.066000;0.3972;0.6558;0.3598;0.847
8.067000;0.4145;0.6582;0.2830;0.828
8.067000;0.4626;0.6652;0.0624;0.813
8.068000;0.4974;0.6394;-0.0132;0.810
8.073000;0.4968;0.5575;-0.0372;0.748
8.078000;0.4605;0.4344;-0.0050;0.633
8.087000;0.4027;0.3515;0.1165;0.547
8.088000;0.3330;0.2537;0.2893;0.509
8.093000;0.2064;0.1790;0.5252;0.592
8.098000;0.1238;0.0811;0.7431;0.758
8.103000;0.0811;-0.0448;0.9790;0.983
8.108000;0.0569;-0.2212;1.2069;1.228
8.116000;0.0918;-0.3717;1.4244;1.475
8.118000;0.0928;-0.5018;1.6199;1.698
8.123000;0.0625;-0.5949;1.7934;1.891
8.127000;-0.0008;-0.6449;1.9500;2.054
8.132000;-0.0894;-0.6522;2.1592;2.257
8.136000;-0.2001;-0.6442;2.2897;2.387
8.165000;-0.3133;-0.6238;2.3010;2.405
8.166000;-0.4236;-0.6371;2.3012;2.425
8.166000;-0.5112;-0.6628;2.2327;2.384
8.166000;-0.6332;-0.7227;2.0529;2.267
8.167000;-0.7271;-0.7165;1.8311;2.096
8.167000;-0.8122;-0.6946;1.5649;1.895
8.171000;-0.9488;-0.6972;1.2689;1.731
8.176000;-1.0450;-0.6642;0.9309;1.549
8.182000;-1.1425;-0.6285;0.6465;1.455
8.186000;-1.1373;-0.5302;0.4061;1.319
8.190000;-1.1407;-0.4573;0.1665;1.240
8.196000;-1.1134;-0.4164;-0.0152;1.189
8.200000;-1.0631;-0.3400;-0.1390;1.125
8.206000;-0.9852;-0.3356;-0.2386;1.068
8.211000;-0.9321;-0.3072;-0.3404;1.039
8.215000;-0.8342;-0.3715;-0.3824;0.990
8.221000;-0.7677;-0.4067;-0.4817;0.993
8.225000;-0.7369;-0.4504;-0.5405;1.019
8.232000;-0.7342;-0.4833;-0.5637;1.044
8.234000;-0.7232;-0.4861;-0.5706;1.042
8.240000;-0.7445;-0.4946;-0.5921;1.072
8.245000;-0.7136;-0.4918;-0.5353;1.019
8.271000;-0.6901;-0.4946;-0.5077;0.989
8.271000;-0.5804;-0.5555;-0.4256;0.909
8.271000;-0.5041;-0.6149;-0.3824;0.882
8.272000;-0.4058;-0.6990;-0.3349;0.875
8.272000;-0.3835;-0.7269;-0.2639;0.863
8.274000;-0.3463;-0.7322;-0.2100;0.837
8.281000;-0.3158;-0.7222;-0.1589;0.804
8.284000;-0.3039;-0.7353;-0.0866;0.800
8.288000;-0.3108;-0.7024;-0.0194;0.768
8.294000;-0.2986;-0.6929;0.0859;0.759
8.298000;-0.2722;-0.7239;0.1265;0.784
8.304000;-0.2482;-0.7525;0.1503;0.806
8.308000;-0.2381;-0.7743;0.1861;0.831
8.313000;-0.2632;-0.7538;0.1505;0.813
8.318000;-0.2917;-0.7271;0.0911;0.789
8.323000;-0.3421;-0.6704;0.0178;0.753
8.328000;-0.3519;-0.6556;-0.0886;0.749
8.335000;-0.3423;-0.6208;-0.2615;0.756
8.338000;-0.3016;-0.6112;-0.4268;0.804
8.343000;-0.2661;-0.6267;-0.6872;0.967
8.376000;-0.2313;-0.5689;-0.9303;1.115
8.377000;-0.1546;-0.4998;-1.2184;1.326
8.377000;-0.0772;-0.4258;-1.4728;1.535
8.378000;-0.0020;-0.3253;-1.6720;1.703
8.378000;0.0870;-0.2383;-1.8067;1.824
8.378000;0.1820;-0.1499;-1.8627;1.878
8.378000;0.2295;-0.0888;-1.8808;1.897
8.381000;0.2677;-0.0212;-1.7918;1.812
8.386000;0.2915;0.0620;-1.6386;1.666
8.392000;0.3009;0.0867;-1.4525;1.486
8.397000;0.3155;0.1312;-1.2692;1.314
8.402000;0.2928;0.1378;-1.0766;1.124
8.406000;0.2670;0.1010;-0.9103;0.954
8.411000;0.2146;0.0735;-0.7610;0.794
8.416000;0.1581;0.0525;-0.7071;0.727
8.420000;0.0762;0.0069;-0.6436;0.648
8.426000;-0.0216;-0.0015;-0.6349;0.635
8.452000;-0.1709;0.0015;-0.6738;0.695
8.452000;-0.2718;0.0132;-0.6982;0.749
8.453000;-0.3293;0.0390;-0.7558;0.825
8.453000;-0.3442;0.0454;-0.7751;0.849
8.453000;-0.3717;0.0399;-0.8016;0.884
8.455000;-0.3257;0.0800;-0.8567;0.920
8.460000;-0.2756;0.0869;-0.8616;0.909
8.465000;-0.2284;0.1204;-0.8426;0.881
8.470000;-0.1435;0.1447;-0.7712;0.798
8.475000;-0.0901;0.1861;-0.7192;0.748
8.480000;-0.0132;0.2111;-0.6433;0.677
8.485000;0.0033;0.2482;-0.5819;0.633
8.490000;0.0245;0.2688;-0.5064;0.574
8.494000;0.0287;0.2870;-0.4118;0.503
8.500000;0.0016;0.2956;-0.2862;0.411
8.505000;-0.0659;0.3327;-0.1822;0.385
8.509000;-0.1162;0.3074;-0.1190;0.349
8.515000;-0.1825;0.3054;-0.0222;0.356
8.519000;-0.2667;0.3289;0.0364;0.425
8.524000;-0.3351;0.3346;0.0569;0.477
8.529000;-0.4042;0.3366;0.0562;0.529
8.534000;-0.4719;0.3611;0.0080;0.594
8.538000;-0.4907;0.3986;-0.0685;0.636
8.543000;-0.4803;0.4465;-0.1469;0.672
8.579000;-0.4773;0.5169;-0.2583;0.749
8.579000;-0.4224;0.5309;-0.3763;0.776
8.580000;-0.2728;0.5127;-0.5368;0.791
8.580000;-0.1627;0.5200;-0.7064;0.892
8.580000;-0.0207;0.4889;-0.8303;0.964
8.580000;0.1048;0.5273;-0.8871;1.037
8.581000;0.1493;0.5451;-0.8914;1.055
8.583000;0.1487;0.6046;-0.8386;1.044
8.587000;0.1272;0.6343;-0.7263;0.973
8.592000;0.0808;0.6151;-0.5978;0.862
8.600000;0.0052;0.5636;-0.3837;0.682
8.602000;-0.0676;0.4892;-0.1605;0.519
8.607000;-0.1009;0.4537;0.0549;0.468
8.612000;-0.1832;0.3825;0.2509;0.493
8.618000;-0.2519;0.2992;0.3965;0.557
8.622000;-0.3713;0.2559;0.5133;0.683
8.628000;-0.4237;0.1859;0.6301;0.782
8.635000;-0.4383;0.1361;0.7302;0.862
8.637000;-0.4637;0.1065;0.8018;0.932
8.642000;-0.5241;0.1185;0.7973;0.961
8.646000;-0.5288;0.1625;0.8409;1.007
8.684000;-0.5235;0.1738;0.8610;1.023
8.685000;-0.4727;0.2148;0.8576;1.003
8.685000;-0.4293;0.2351;0.8379;0.970
8.685000;-0.3317;0.1829;0.8376;0.919
8.686000;-0.1952;0.1323;0.8688;0.900
8.686000;-0.0542;0.0887;0.9168;0.923
8.686000;0.0361;0.0519;0.9435;0.946
8.686000;0.0835;0.0225;0.9823;0.986
8.690000;0.0885;0.0052;1.0186;1.022
8.695000;0.0685;0.0050;1.0359;1.038
8.701000;0.0317;0.0126;1.0433;1.044
8.705000;-0.0141;-0.0148;1.0911;1.091
8.710000;-0.0472;-0.0483;1.1147;1.117
8.716000;-0.0372;-0.0658;1.1712;1.174
8.719000;-0.0443;-0.2008;1.3011;1.317
8.725000;-0.0613;-0.2974;1.2008;1.239
8.730000;-0.0097;-0.2265;1.3748;1.393
8.735000;0.1228;-0.6940;1.6556;1.799
8.739000;0.0321;-0.7171;1.6870;1.833
8.744000;0.0450;-0.6805;1.7321;1.862
8.780000;0.2747;-0.8567;1.8626;2.069
8.781000;0.5141;-0.9186;2.1143;2.362
8.781000;0.7158;-1.0610;2.2699;2.606
8.781000;0.8504;-1.1476;2.3605;2.759
8.782000;0.9512;-1.2024;2.4175;2.863
8.782000;1.0740;-1.2590;2.4814;2.983
8.782000;1.0982;-1.2844;2.5881;3.091
8.784000;1.0746;-1.2814;2.6444;3.129
8.789000;0.9678;-1.2816;2.6338;3.085
8.793000;0.8529;-1.2711;2.5181;2.947
8.798000;0.6779;-1.2237;2.3955;2.774
8.806000;0.5846;-1.2307;2.1680;2.561
8.808000;0.4872;-1.2301;1.9075;2.321
8.813000;0.4209;-1.1885;1.6093;2.044
8.821000;0.3366;-1.1560;1.3046;1.775
8.824000;0.2884;-1.0990;1.0032;1.516
8.827000;0.2289;-1.0579;0.7312;1.306
8.834000;0.1667;-0.9993;0.5604;1.158
8.837000;0.1530;-0.8969;0.3929;0.991
8.842000;0.1417;-0.8105;0.2931;0.873
8.847000;0.1556;-0.7044;0.2324;0.758
8.873000;0.1924;-0.6577;0.1104;0.694
8.873000;0.2733;-0.5887;-0.0418;0.650
8.874000;0.3746;-0.5071;-0.2027;0.662
8.874000;0.4986;-0.4482;-0.3414;0.752
8.874000;0.6168;-0.3923;-0.4987;0.885
8.876000;0.6819;-0.3123;-0.6700;1.006
8.884000;0.7639;-0.2411;-0.7743;1.114
8.886000;0.8278;-0.1447;-0.8978;1.230
8.891000;0.8695;-0.1228;-0.9764;1.313
8.896000;0.9228;-0.0815;-1.0724;1.417
8.901000;0.9900;-0.0969;-1.1333;1.508
8.907000;1.0287;-0.0966;-1.1834;1.571
8.911000;1.0368;-0.1517;-1.1606;1.564
8.918000;0.9766;-0.2119;-1.0556;1.454
8.922000;0.9179;-0.2890;-0.9569;1.357
8.929000;0.7890;-0.3019;-0.7546;1.133
8.930000;0.6449;-0.3563;-0.5609;0.926
8.967000;0.5143;-0.4097;-0.3613;0.750
8.968000;0.3518;-0.4866;-0.0911;0.607
8.968000;0.2334;-0.5204;0.1423;0.588
8.968000;0.0848;-0.5555;0.3919;0.685
8.969000;-0.0554;-0.6000;0.6220;0.866
8.969000;-0.1730;-0.5782;0.8736;1.062
8.969000;-0.3424;-0.5821;1.0442;1.244
8.969000;-0.4870;-0.5743;1.1532;1.377
8.974000;-0.5736;-0.5722;1.2008;1.449
8.980000;-0.6213;-0.5672;1.1993;1.465
8.985000;-0.6946;-0.5422;1.1296;1.433
8.989000;-0.7553;-0.5073;1.0611;1.398
8.994000;-0.7100;-0.4629;0.9390;1.265
9.000000;-0.6712;-0.4352;0.7681;1.109
9.004000;-0.6293;-0.3691;0.4718;0.869
9.009000;-0.5632;-0.3121;0.2082;0.677
9.014000;-0.5042;-0.2301;-0.1521;0.575
9.019000;-0.4315;-0.1489;-0.5135;0.687
9.023000;-0.3717;-0.0796;-0.8761;0.955
9.028000;-0.3015;0.0148;-1.1710;1.209
9.063000;-0.2357;0.0462;-1.4794;1.499
9.064000;-0.1908;0.1186;-1.7731;1.787
9.065000;-0.1571;0.1679;-1.9877;2.001
9.065000;-0.1512;0.1758;-2.1021;2.115
9.065000;-0.0894;0.2477;-2.1808;2.197
9.065000;-0.1079;0.2668;-2.1883;2.207
9.066000;-0.0965;0.3045;-2.1509;2.174
9.067000;-0.0833;0.3397;-2.0878;2.117
9.072000;-0.0683;0.3385;-1.9919;2.022
9.077000;-0.0487;0.3512;-1.8608;1.894
9.083000;0.0117;0.3632;-1.7256;1.763
9.088000;0.0554;0.4007;-1.5647;1.616
9.091000;0.1354;0.4580;-1.3923;1.472
9.098000;0.2229;0.4703;-1.2299;1.335
9.102000;0.3205;0.5163;-1.1060;1.262
9.107000;0.4351;0.5333;-1.0085;1.221
9.112000;0.5593;0.5165;-0.9564;1.222
9.118000;0.6310;0.5517;-0.9472;1.265
9.125000;0.6669;0.5219;-0.9571;1.278
9.126000;0.7055;0.5802;-1.0099;1.362
9.132000;0.6918;0.5643;-1.0315;1.364
9.158000;0.6567;0.6107;-1.0603;1.389
9.159000;0.5857;0.5977;-1.1179;1.396
9.159000;0.5076;0.5569;-1.1852;1.404
9.160000;0.4010;0.5435;-1.2193;1.394
9.160000;0.2689;0.5243;-1.1940;1.331
9.160000;0.1832;0.4802;-1.1597;1.269
9.166000;0.1032;0.4806;-1.0805;1.187
9.171000;-0.0092;0.4965;-0.9874;1.105
9.176000;-0.0319;0.5038;-0.8613;0.998
9.180000;-0.0683;0.5449;-0.7547;0.933
9.186000;-0.0511;0.5551;-0.7080;0.901
9.190000;-0.0261;0.5605;-0.6232;0.839
9.195000;0.0071;0.5751;-0.5026;0.764
9.201000;0.0383;0.5770;-0.4201;0.715
9.204000;0.0674;0.5898;-0.3805;0.705
9.209000;0.0896;0.6038;-0.3454;0.701
9.215000;0.0926;0.6547;-0.3457;0.746
9.219000;0.0977;0.6756;-0.2907;0.742
9.225000;0.1501;0.6975;-0.3071;0.777
9.229000;0.1925;0.6970;-0.3184;0.790
9.235000;0.2083;0.6811;-0.3221;0.782
9.239000;0.2189;0.6789;-0.3305;0.786
9.243000;0.1790;0.7312;-0.2956;0.809
9.248000;0.1554;0.7664;-0.2392;0.818
9.283000;0.1316;0.7774;-0.1588;0.804
9.283000;0.1147;0.7641;-0.0808;0.777
9.283000;0.1191;0.7194;0.0426;0.730
9.284000;0.1095;0.6599;0.1183;0.679
9.284000;0.0956;0.6382;0.2083;0.678
9.284000;0.0966;0.5875;0.2744;0.656
9.284000;0.0672;0.5505;0.3525;0.657
9.288000;0.0957;0.5178;0.4403;0.686
9.293000;0.1079;0.5441;0.4876;0.739
9.298000;0.1036;0.5361;0.5637;0.785
9.303000;0.1069;0.5797;0.6090;0.848
9.308000;0.1200;0.6703;0.6807;0.963
9.312000;0.1525;0.7287;0.7527;1.059
9.320000;0.1948;0.7479;0.7532;1.079
9.330000;0.2678;0.8019;0.7541;1.133
9.333000;0.3711;0.7974;0.7601;1.162
9.334000;0.4825;0.8187;0.7496;1.210
9.367000;0.6614;0.7729;0.7608;1.270
9.367000;0.8148;0.6789;0.6814;1.261
9.368000;0.9694;0.5803;0.6451;1.301
9.368000;1.0567;0.5152;0.5755;1.309
9.368000;1.1155;0.4769;0.5273;1.323
9.368000;1.1082;0.4347;0.4598;1.276
9.369000;1.0682;0.3795;0.4183;1.208
9.371000;1.0119;0.3714;0.4170;1.156
9.376000;0.9388;0.3344;0.4412;1.090
9.381000;0.8772;0.2974;0.5292;1.067
9.387000;0.7835;0.1532;0.6091;1.004
9.391000;0.6602;0.1451;0.5400;0.865
9.396000;0.4957;0.0865;0.7141;0.874
9.401000;0.3262;0.0585;0.7607;0.830
9.407000;0.1880;0.0151;0.7997;0.822
9.410000;0.0240;-0.0900;0.7978;0.803
9.416000;-0.1057;-0.1926;0.7984;0.828
9.420000;-0.1970;-0.2906;0.7345;0.814
9.426000;-0.3007;-0.3554;0.7139;0.852
9.430000;-0.3721;-0.3898;0.6146;0.817
9.468000;-0.4286;-0.4127;0.5469;0.808
9.469000;-0.4301;-0.3715;0.5248;0.774
9.469000;-0.3459;-0.3619;0.5173;0.720
9.469000;-0.2479;-0.3693;0.5052;0.673
9.470000;-0.1171;-0.4053;0.5075;0.660
9.470000;0.0280;-0.4339;0.5338;0.688
9.470000;0.1041;-0.4834;0.5838;0.765
9.471000;0.1529;-0.5082;0.6240;0.819
9.474000;0.1110;-0.5080;0.7092;0.879
9.479000;0.0209;-0.4735;0.7319;0.872
9.484000;-0.1064;-0.4407;0.7303;0.860
9.489000;-0.1739;-0.4814;0.7953;0.946
9.494000;-0.3151;-0.5052;0.7500;0.958
9.498000;-0.4243;-0.5912;0.6783;0.995
9.503000;-0.5206;-0.6582;0.5324;0.994
9.509000;-0.6522;-0.7160;0.3867;1.043
9.513000;-0.7938;-0.7358;0.1957;1.100
9.519000;-0.9541;-0.7467;0.0672;1.213
9.523000;-1.0768;-0.6653;-0.0512;1.267
9.528000;-1.1469;-0.5923;-0.1284;1.297
9.536000;-1.1347;-0.5782;-0.1381;1.281
9.539000;-1.0779;-0.5105;-0.1806;1.206
9.543000;-1.0107;-0.4564;-0.2033;1.127
9.547000;-0.9864;-0.4371;-0.2637;1.111
9.598000;-0.9571;-0.4337;-0.2565;1.082
9.599000;-0.9179;-0.4244;-0.3180;1.060
9.599000;-0.9139;-0.4427;-0.3504;1.074
9.600000;-0.9351;-0.4477;-0.3654;1.099
9.600000;-0.9717;-0.4654;-0.3826;1.143
9.600000;-1.0255;-0.4497;-0.4186;1.196
9.600000;-1.0411;-0.4555;-0.4355;1.217
9.601000;-1.0819;-0.5111;-0.4380;1.274
9.602000;-1.0541;-0.5538;-0.4670;1.279
9.602000;-1.0717;-0.6172;-0.5082;1.337
9.602000;-1.0030;-0.6744;-0.5234;1.317
9.608000;-0.9556;-0.7347;-0.5869;1.341
9.612000;-0.9148;-0.8027;-0.6008;1.357
9.616000;-0.9019;-0.8349;-0.6345;1.383
9.622000;-0.8164;-0.8120;-0.6164;1.306
9.626000;-0.7637;-0.8153;-0.6136;1.275
9.631000;-0.6866;-0.8257;-0.5543;1.208
9.636000;-0.5901;-0.8098;-0.5292;1.133
9.640000;-0.4932;-0.8252;-0.4166;1.048
9.645000;-0.3582;-0.8171;-0.3142;0.946
9.678000;-0.2400;-0.7642;-0.1863;0.822
9.679000;-0.1459;-0.7505;-0.0470;0.766
9.679000;-0.0612;-0.7166;0.1085;0.727
9.679000;-0.0387;-0.6941;0.2780;0.749
9.680000;-0.0566;-0.6382;0.3900;0.750
9.680000;-0.1172;-0.6232;0.4781;0.794
9.680000;-0.1197;-0.5945;0.5447;0.815
9.684000;-0.2030;-0.5976;0.5590;0.843
9.689000;-0.2259;-0.6115;0.5712;0.867
9.694000;-0.3055;-0.6385;0.5527;0.898
9.699000;-0.3605;-0.6238;0.5418;0.901
9.704000;-0.4625;-0.6390;0.5074;0.938
9.709000;-0.5204;-0.6818;0.4543;0.971
9.714000;-0.5771;-0.7089;0.3586;0.982
9.720000;-0.6586;-0.7159;0.2776;1.012
9.724000;-0.7193;-0.6761;0.1587;1.000
9.729000;-0.7495;-0.6254;0.0833;0.980
9.734000;-0.7947;-0.5664;-0.0707;0.978
9.740000;-0.8193;-0.5136;-0.1764;0.983
9.743000;-0.8091;-0.4428;-0.3367;0.982
9.748000;-0.8006;-0.3730;-0.4822;1.006
9.768000;-0.8042;-0.2706;-0.6536;1.071
9.769000;-0.7676;-0.1883;-0.7910;1.118
9.769000;-0.7198;-0.1020;-0.9256;1.177
9.770000;-0.6682;0.0198;-1.0599;1.253
9.773000;-0.6508;0.0983;-1.1749;1.347
9.778000;-0.5650;0.1674;-1.2992;1.427
9.782000;-0.4806;0.2104;-1.3804;1.477
9.788000;-0.4283;0.2757;-1.4664;1.552
9.793000;-0.3555;0.3128;-1.5071;1.580
9.798000;-0.3122;0.3511;-1.5170;1.588
9.802000;-0.2623;0.3930;-1.4866;1.560
9.806000;-0.2105;0.4098;-1.4088;1.482
9.812000;-0.1783;0.3824;-1.2956;1.363
9.817000;-0.1728;0.3560;-1.1971;1.261
9.821000;-0.1890;0.3401;-1.0728;1.141
9.827000;-0.2054;0.2988;-0.9369;1.005
9.832000;-0.2245;0.3084;-0.7774;0.866
9.837000;-0.2628;0.2776;-0.5775;0.693
9.841000;-0.2914;0.2684;-0.4186;0.576
9.846000;-0.3410;0.2783;-0.3100;0.538
9.883000;-0.3970;0.2831;-0.1824;0.521
9.883000;-0.4735;0.3113;-0.0955;0.575
9.884000;-0.5203;0.3414;-0.0015;0.622
9.884000;-0.5850;0.3516;0.0687;0.686
9.885000;-0.6534;0.3802;0.1293;0.767
9.885000;-0.6565;0.3793;0.1782;0.779
9.886000;-0.6780;0.4228;0.2607;0.840
9.886000;-0.6273;0.4651;0.3003;0.837
9.892000;-0.5977;0.5154;0.3332;0.857
9.896000;-0.5178;0.5831;0.3593;0.859
9.903000;-0.4309;0.6159;0.3643;0.835
9.904000;-0.3495;0.6753;0.3389;0.832
9.910000;-0.2497;0.6924;0.2950;0.793
9.915000;-0.1411;0.7076;0.2349;0.759
9.920000;-0.0309;0.7310;0.1420;0.745
9.924000;-0.0047;0.7457;0.0640;0.748
9.930000;0.0333;0.7281;-0.0756;0.733
9.938000;0.0455;0.7261;-0.1454;0.742
9.943000;0.0459;0.7428;-0.2437;0.783
9.944000;0.0300;0.7135;-0.3321;0.788
9.948000;-0.0071;0.6842;-0.4299;0.808
9.976000;-0.0223;0.6623;-0.5277;0.847
9.977000;-0.0401;0.6294;-0.6185;0.883
9.977000;-0.0751;0.5402;-0.5875;0.802
9.977000;-0.0988;0.4858;-0.5378;0.731
9.978000;-0.1236;0.4618;-0.3977;0.622
9.979000;-0.1327;0.4322;-0.1865;0.489
9.983000;-0.1715;0.3969;0.0909;0.442
9.988000;-0.1653;0.3744;0.3750;0.555
9.993000;-0.1188;0.3260;0.5989;0.692
9.998000;-0.0980;0.2676;0.8393;0.886
10.003000;-0.0857;0.2946;1.0270;1.072
10.008000;-0.0571;0.3229;1.1406;1.187
10.013000;-0.0095;0.3853;1.2115;1.271
10.023000;0.0548;0.4099;1.2205;1.289
10.024000;0.2095;0.4017;1.1439;1.230
10.028000;0.3460;0.3276;1.0869;1.187
10.032000;0.4204;0.2762;0.9563;1.080
10.037000;0.4775;0.2505;0.8309;0.991
10.082000;0.4692;0.2556;0.7179;0.895
10.083000;0.4266;0.2966;0.6433;0.827
10.083000;0.3211;0.3616;0.3872;0.620
10.083000;0.2104;0.4222;0.5090;0.694
10.083000;0.1489;0.4211;0.5469;0.706
10.084000;0.0860;0.4714;0.5103;0.700
10.084000;0.1214;0.4395;0.5787;0.737
10.084000;0.2046;0.3567;0.6227;0.746
10.084000;0.3255;0.2305;0.6542;0.766
10.086000;0.4436;0.1019;0.6756;0.815
10.091000;0.5378;-0.0192;0.6939;0.878
10.096000;0.6087;-0.1087;0.7496;0.972
10.101000;0.6690;-0.1734;0.7732;1.037
10.106000;0.7002;-0.2369;0.7979;1.088
10.111000;0.7749;-0.2968;0.8739;1.205
10.116000;0.8600;-0.3500;0.9555;1.332
10.121000;0.9229;-0.4543;1.0857;1.496
10.125000;1.0094;-0.6357;1.2548;1.731
10.130000;1.0629;-0.7799;1.4247;1.941
10.164000;1.0748;-0.9232;1.5811;2.123
10.164000;1.0048;-1.0428;1.7674;2.285
10.164000;0.8747;-1.1055;1.9765;2.428
10.165000;0.6819;-1.1702;2.1109;2.508
10.165000;0.4958;-1.1800;2.1470;2.500
10.165000;0.2586;-1.1744;2.1785;2.488
10.166000;0.0703;-1.1442;2.1864;2.469
10.170000;-0.1110;-1.0734;2.1592;2.414
10.174000;-0.2359;-1.0272;2.1068;2.356
10.179000;-0.2937;-0.9368;2.0077;2.235
10.184000;-0.3519;-0.8932;1.8982;2.127
10.190000;-0.3473;-0.8231;1.7425;1.958
10.194000;-0.3401;-0.7527;1.5432;1.750
10.199000;-0.2570;-0.6486;1.3529;1.522
10.204000;-0.1629;-0.5707;1.0904;1.241
10.211000;-0.0559;-0.4802;0.8009;0.936
10.213000;0.0689;-0.4244;0.5061;0.664
10.220000;0.1946;-0.3834;0.2270;0.486
10.224000;0.3506;-0.3162;-0.0627;0.476
10.229000;0.4825;-0.2625;-0.3801;0.668
10.234000;0.5911;-0.2549;-0.6394;0.907
10.239000;0.6746;-0.2303;-0.8960;1.145
10.243000;0.7575;-0.1597;-1.1309;1.370
10.247000;0.8736;-0.0827;-1.2608;1.536
10.284000;0.9614;-0.0755;-1.4031;1.703
10.284000;1.0638;-0.0683;-1.4743;1.819
10.285000;1.1191;-0.0298;-1.5272;1.894
10.285000;1.2013;-0.0244;-1.5141;1.933
10.285000;1.2458;0.0291;-1.4349;1.900
10.286000;1.2624;0.0778;-1.3232;1.830
10.286000;1.2535;0.1094;-1.2196;1.752
10.287000;1.2409;0.1641;-1.0521;1.635
10.292000;1.1887;0.2175;-0.9259;1.522
10.297000;1.0968;0.2141;-0.7715;1.358
10.303000;1.0153;0.2515;-0.6317;1.222
10.306000;0.9037;0.2554;-0.5399;1.083
10.312000;0.7453;0.2564;-0.5223;0.946
10.317000;0.5955;0.2209;-0.4974;0.807
10.323000;0.4542;0.1847;-0.4962;0.698
10.326000;0.3141;0.1504;-0.5811;0.677
10.331000;0.1436;0.1062;-0.6035;0.629
10.339000;0.0117;0.0642;-0.6641;0.667
10.341000;-0.1441;0.0291;-0.6815;0.697
10.346000;-0.2949;0.0062;-0.7324;0.790
10.350000;-0.4027;-0.0213;-0.8119;0.907
10.384000;-0.4604;-0.0462;-0.8532;0.971
10.384000;-0.4779;-0.0801;-0.8682;0.994
10.385000;-0.4816;-0.0752;-0.9191;1.040
10.385000;-0.4404;-0.0624;-0.9415;1.041
10.385000;-0.3711;0.0012;-0.9234;0.995
10.385000;-0.3265;0.0127;-0.9150;0.972
10.386000;-0.2605;0.0652;-0.9282;0.966
10.391000;-0.2162;0.1321;-0.8674;0.904
10.394000;-0.1172;0.2253;-0.8353;0.873
10.399000;-0.0784;0.3133;-0.8342;0.895
10.409000;-0.0328;0.3724;-0.8425;0.922
10.410000;0.0102;0.4665;-0.8268;0.949
10.414000;0.0555;0.4954;-0.8157;0.956
10.425000;0.1196;0.5020;-0.7804;0.936
10.426000;0.2169;0.5697;-0.7998;1.006
10.429000;0.2211;0.6121;-0.8307;1.055
10.434000;0.2378;0.6388;-0.8565;1.095
10.441000;0.2744;0.6522;-0.8986;1.144
10.444000;0.2853;0.6501;-0.9237;1.165
10.448000;0.2814;0.6565;-1.0081;1.236
10.453000;0.3198;0.6742;-1.0850;1.317
10.459000;0.2950;0.6962;-1.2452;1.457
10.463000;0.3190;0.7591;-1.3503;1.582
10.468000;0.3653;0.7606;-1.4267;1.658
10.507000;0.4078;0.7157;-1.4531;1.670
10.508000;0.4491;0.6793;-1.4321;1.647
10.508000;0.4798;0.6401;-1.3733;1.589
10.509000;0.4810;0.6148;-1.2984;1.515
10.509000;0.4821;0.5865;-1.1835;1.406
10.509000;0.4431;0.6248;-0.9929;1.254
10.510000;0.3932;0.5929;-0.8366;1.098
10.510000;0.3586;0.6078;-0.6402;0.953
10.512000;0.3210;0.5875;-0.4348;0.798
10.518000;0.2950;0.5676;-0.2156;0.675
10.523000;0.2329;0.5259;-0.0541;0.578
10.529000;0.1997;0.5142;0.1002;0.561
10.532000;0.1526;0.5173;0.2142;0.580
10.540000;0.1086;0.5447;0.2447;0.607
10.543000;0.0076;0.5723;0.2685;0.632
10.547000;-0.0427;0.6237;0.2379;0.669
10.552000;-0.0836;0.6270;0.1339;0.647
10.580000;-0.1060;0.6254;0.0091;0.634
10.581000;-0.0825;0.6335;-0.1458;0.655
10.581000;-0.0575;0.6706;-0.3070;0.740
10.582000;-0.0897;0.6800;-0.4436;0.817
10.582000;-0.1052;0.7457;-0.6177;0.974
10.582000;-0.1237;0.7868;-0.6861;1.051
10.591000;-0.0662;0.7893;-0.7040;1.060
10.592000;-0.0356;0.8157;-0.7217;1.090
10.596000;0.0186;0.7965;-0.6674;1.039
10.600000;0.1253;0.8063;-0.5965;1.011
10.605000;0.2085;0.7591;-0.4803;0.922
10.611000;0.2686;0.6670;-0.3284;0.791
10.616000;0.3159;0.6519;-0.1768;0.746
10.623000;0.3621;0.6059;0.0224;0.706
10.629000;0.3692;0.6004;0.1690;0.725
10.629000;0.4095;0.5682;0.3107;0.766
10.635000;0.4352;0.5424;0.3736;0.789
10.662000;0.4283;0.5279;0.4415;0.811
10.663000;0.4367;0.5389;0.5094;0.861
10.663000;0.4299;0.5589;0.5416;0.889
10.664000;0.3965;0.6282;0.5643;0.933
10.664000;0.3297;0.7563;0.5681;1.002
10.664000;0.2778;0.8570;0.5601;1.061
10.669000;0.2764;0.9234;0.4997;1.086
10.674000;0.3345;0.9650;0.4444;1.114
10.679000;0.3960;0.9613;0.3986;1.113
10.684000;0.4908;0.8574;0.3648;1.053
10.689000;0.6253;0.7831;0.3381;1.058
10.694000;0.7354;0.6784;0.2730;1.037
10.698000;0.7875;0.5892;0.2101;1.006
10.703000;0.7558;0.5464;0.1016;0.938
10.708000;0.6805;0.5413;0.0262;0.870
10.713000;0.6423;0.5502;-0.0379;0.847
10.719000;0.5729;0.5501;-0.1314;0.805
10.728000;0.5170;0.4957;0.0754;0.720
10.729000;0.4596;0.4354;0.0658;0.636
10.734000;0.4573;0.3240;0.2463;0.612
10.739000;0.3788;0.1949;0.5091;0.664
10.783000;0.2947;0.0215;0.7109;0.770
10.784000;0.1297;-0.1347;0.9715;0.989
10.785000;-0.0021;-0.2625;1.2001;1.228
10.785000;-0.1784;-0.4149;1.4350;1.504
10.785000;-0.3260;-0.5095;1.6576;1.764
10.786000;-0.4869;-0.6062;1.7985;1.959
10.787000;-0.5666;-0.6605;1.8915;2.082
10.787000;-0.6098;-0.7277;1.8721;2.099
10.787000;-0.5975;-0.7582;1.7527;2.001
10.788000;-0.5468;-0.7662;1.5667;1.828
10.791000;-0.3777;-0.7614;1.3312;1.579
10.796000;-0.1450;-0.7504;1.0723;1.317
10.801000;0.0966;-0.6705;0.8545;1.090
10.807000;0.3047;-0.6285;0.6538;0.957
10.811000;0.4087;-0.5757;0.5319;0.884
10.816000;0.4728;-0.5189;0.5078;0.866
10.823000;0.4846;-0.4503;0.5883;0.885
10.826000;0.4079;-0.3911;0.8141;0.991
10.830000;0.2649;-0.3922;1.1012;1.199
10.835000;0.0827;-0.4445;1.4308;1.501
10.866000;-0.1289;-0.5897;1.7171;1.820
10.868000;-0.3652;-0.7374;1.9744;2.139
10.868000;-0.5117;-0.8648;2.1624;2.384
10.869000;-0.6438;-0.9801;2.2407;2.529
10.869000;-0.7800;-1.0552;2.2575;2.611
10.870000;-0.8484;-1.0334;2.1795;2.557
10.870000;-0.8209;-0.9797;2.0403;2.408
10.875000;-0.7341;-0.8917;1.8139;2.150
10.880000;-0.6305;-0.7958;1.5171;1.825
10.885000;-0.5056;-0.6967;1.1261;1.417
10.889000;-0.4037;-0.6533;0.7198;1.053
10.894000;-0.3085;-0.6125;0.3243;0.759
10.899000;-0.2304;-0.5374;-0.0439;0.586
10.905000;-0.1405;-0.4348;-0.3682;0.587
10.909000;-0.1191;-0.3494;-0.6488;0.747
10.914000;-0.1567;-0.2689;-0.9004;0.953
10.919000;-0.1778;-0.2120;-1.1325;1.166
10.924000;-0.2568;-0.1973;-1.3118;1.351
10.929000;-0.2914;-0.2194;-1.4889;1.533
10.934000;-0.3684;-0.2637;-1.5299;1.596
10.944000;-0.4906;-0.3083;-1.4878;1.597
10.944000;-0.5507;-0.3482;-1.3937;1.539
10.948000;-0.6226;-0.4004;-1.2955;1.492
10.953000;-0.6411;-0.4601;-1.0927;1.348
11.005000;-0.5737;-0.4992;-0.8691;1.155
11.006000;-0.5077;-0.5325;-0.6746;0.998
11.006000;-0.3849;-0.5486;-0.4852;0.827
11.007000;-0.2785;-0.5384;-0.3057;0.679
11.007000;-0.1356;-0.5163;-0.1597;0.557
11.007000;-0.0084;-0.5184;-0.0665;0.523
11.007000;0.1180;-0.4950;-0.0091;0.509
11.007000;0.1720;-0.4773;-0.0040;0.507
11.008000;0.2376;-0.4581;-0.0227;0.517
11.008000;0.2814;-0.4613;-0.0913;0.548
11.008000;0.3127;-0.4628;-0.2314;0.605
11.012000;0.3120;-0.4769;-0.3521;0.670
11.017000;0.3243;-0.4962;-0.4439;0.741
11.022000;0.2626;-0.4797;-0.5235;0.757
11.027000;0.2007;-0.4991;-0.5625;0.778
11.031000;0.1165;-0.4986;-0.6063;0.794
11.037000;0.0146;-0.4834;-0.5999;0.771
11.042000;-0.0760;-0.5177;-0.5603;0.767
11.046000;-0.1499;-0.5612;-0.5376;0.791
11.051000;-0.1705;-0.6641;-0.4935;0.845
11.074000;-0.2188;-0.7310;-0.4782;0.900
11.074000;-0.2632;-0.7307;-0.4534;0.899
11.075000;-0.3059;-0.7399;-0.4216;0.905
11.075000;-0.3584;-0.6845;-0.4234;0.881
11.075000;-0.4202;-0.6677;-0.4443;0.905
11.081000;-0.4437;-0.6251;-0.4891;0.909
11.086000;-0.4573;-0.5664;-0.5671;0.923
11.091000;-0.4906;-0.5298;-0.6402;0.965
11.095000;-0.4865;-0.4534;-0.7799;1.025
11.100000;-0.4316;-0.3729;-0.8978;1.064
11.106000;-0.4148;-0.3242;-1.0583;1.182
11.111000;-0.3986;-0.2930;-1.2279;1.324
11.115000;-0.3739;-0.2694;-1.3995;1.473
11.120000;-0.3606;-0.2483;-1.5158;1.578
11.126000;-0.3375;-0.2198;-1.6273;1.676
11.130000;-0.3674;-0.1526;-1.7099;1.756
11.134000;-0.4286;-0.0680;-1.7902;1.842
11.145000;-0.4612;-0.0351;-1.8206;1.878
11.147000;-0.4862;0.0135;-1.8010;1.866
11.149000;-0.4985;0.0350;-1.7485;1.818
11.154000;-0.5095;0.0844;-1.6870;1.764
11.158000;-0.5401;0.0973;-1.5065;1.603
11.164000;-0.5446;0.1309;-1.3125;1.427
11.202000;-0.5588;0.1732;-1.1001;1.246
11.203000;-0.5915;0.2113;-0.9192;1.113
11.203000;-0.5946;0.1879;-0.7268;0.958
11.203000;-0.6202;0.2123;-0.5657;0.866
11.203000;-0.5823;0.1978;-0.4190;0.744
11.204000;-0.5767;0.2229;-0.2937;0.685
11.204000;-0.5844;0.2062;-0.2352;0.663
11.204000;-0.6224;0.2355;-0.2073;0.697
11.210000;-0.6027;0.2870;-0.2338;0.707
11.213000;-0.6145;0.2931;-0.2645;0.730
11.218000;-0.5873;0.3189;-0.3852;0.771
11.223000;-0.5647;0.3500;-0.4383;0.796
11.227000;-0.5402;0.4131;-0.5172;0.854
11.232000;-0.4855;0.4297;-0.5214;0.832
11.237000;-0.4147;0.4358;-0.5348;0.805
11.243000;-0.3465;0.4342;-0.5049;0.751
11.247000;-0.2805;0.4276;-0.4772;0.699
11.252000;-0.2017;0.4472;-0.4423;0.661
11.289000;-0.1668;0.4408;-0.3788;0.605
11.289000;-0.1891;0.4586;-0.2940;0.577
11.290000;-0.2104;0.4554;-0.2213;0.548
11.290000;-0.1919;0.4458;-0.1251;0.501
11.290000;-0.1954;0.4367;-0.0030;0.478
11.290000;-0.1774;0.3851;0.0734;0.430
11.291000;-0.1137;0.3292;0.1566;0.382
11.293000;-0.0951;0.2784;0.1917;0.351
11.296000;-0.0668;0.2136;0.1859;0.291
11.301000;-0.1012;0.1900;0.2086;0.300
11.307000;-0.1344;0.1955;0.2453;0.341
11.311000;-0.2122;0.1753;0.3010;0.408
11.316000;-0.3044;0.1533;0.4305;0.549
11.321000;-0.3827;0.1387;0.5837;0.712
11.326000;-0.4330;0.0906;0.7797;0.896
11.330000;-0.5223;0.1064;0.9543;1.093
11.335000;-0.6191;0.1786;1.0645;1.244
11.363000;-0.7036;0.2517;1.1773;1.394
11.363000;-0.7248;0.3561;1.2333;1.474
11.364000;-0.6778;0.4105;1.2014;1.439
11.364000;-0.5464;0.3815;1.1893;1.363
11.364000;-0.3845;0.2861;1.1157;1.214
11.364000;-0.2022;0.1609;1.1240;1.153
11.369000;-0.1052;0.0209;1.0919;1.097
11.374000;-0.0735;-0.0549;1.0911;1.095
11.380000;-0.1159;-0.0781;1.1597;1.168
11.384000;-0.1862;-0.0054;1.2592;1.273
11.390000;-0.2313;0.1155;1.1170;1.147
11.394000;-0.2153;0.2252;1.0631;1.108
11.400000;-0.1315;0.2597;1.1402;1.177
11.404000;0.0720;0.2388;1.0898;1.118
11.410000;0.3159;0.2227;1.0602;1.128
11.414000;0.5665;0.1664;1.1038;1.252
11.419000;0.7689;0.1109;1.1104;1.355
11.424000;0.9302;0.0226;1.1495;1.479
11.429000;1.0386;-0.0315;1.1540;1.553
11.434000;1.1346;-0.0850;1.1623;1.627
11.439000;1.2161;-0.1450;1.1839;1.703
11.445000;1.2664;-0.2379;1.1950;1.757
11.448000;1.2739;-0.3681;1.2503;1.823
11.452000;1.2654;-0.5216;1.3214;1.902
11.492000;1.2150;-0.7152;1.3796;1.973
11.493000;1.1805;-0.9015;1.4392;2.068
11.493000;1.0260;-1.0256;1.5244;2.104
11.493000;0.8241;-1.0979;1.6161;2.120
11.493000;0.5635;-1.1403;1.6237;2.063
11.493000;0.2903;-1.1537;1.6312;2.019
11.494000;-0.0047;-1.1670;1.6553;2.025
11.494000;-0.2883;-1.1168;1.6606;2.022
11.497000;-0.5176;-1.1036;1.6352;2.040
11.501000;-0.7030;-1.0710;1.5939;2.045
11.506000;-0.8688;-1.0621;1.5246;2.051
11.512000;-0.9350;-1.0563;1.4494;2.023
11.517000;-0.9617;-1.0709;1.3373;1.965
11.521000;-1.0128;-1.0202;1.1669;1.852
11.526000;-1.0579;-0.9545;0.9145;1.693
11.531000;-1.0692;-0.8642;0.5873;1.495
11.535000;-1.0683;-0.6962;0.3332;1.318
11.543000;-1.0422;-0.5837;0.0255;1.195
11.552000;-0.9859;-0.4209;-0.3195;1.119
11.553000;-0.8594;-0.2880;-0.6135;1.094
11.555000;-0.6744;-0.1774;-0.7994;1.061
11.593000;-0.5055;-0.0908;-1.0113;1.134
11.594000;-0.3308;-0.0109;-1.1634;1.210
11.594000;-0.1288;0.0697;-1.2678;1.276
11.594000;0.0263;0.1370;-1.3319;1.339
11.594000;0.1825;0.1339;-1.3078;1.327
11.595000;0.3184;0.1373;-1.2868;1.333
11.595000;0.3982;0.1808;-1.2472;1.322
11.596000;0.4755;0.2024;-1.1510;1.262
11.600000;0.5011;0.1899;-1.0793;1.205
11.605000;0.5334;0.2031;-0.9843;1.138
11.610000;0.5518;0.2180;-0.9449;1.116
11.615000;0.5590;0.2277;-0.9108;1.093
11.621000;0.5484;0.2226;-0.8989;1.076
11.626000;0.5182;0.2386;-0.8827;1.051
11.629000;0.4854;0.2469;-0.7954;0.964
11.634000;0.4933;0.2665;-0.7517;0.938
11.661000;0.5178;0.2468;-0.6965;0.902
11.661000;0.4680;0.2810;-0.6535;0.852
11.662000;0.4584;0.2943;-0.5821;0.797
11.662000;0.3642;0.3177;-0.5468;0.730
11.662000;0.2946;0.3481;-0.4445;0.637
11.663000;0.2415;0.4098;-0.3303;0.579
11.669000;0.2621;0.4045;-0.2044;0.523
11.675000;0.2839;0.3696;-0.0615;0.470
11.679000;0.3431;0.3192;0.0194;0.469
11.684000;0.3824;0.2100;0.0337;0.438
11.688000;0.4048;0.1661;-0.0255;0.438
11.692000;0.3247;0.1540;-0.1249;0.380
11.697000;0.2047;0.1621;-0.2046;0.332
11.703000;0.0759;0.2120;-0.3341;0.403
11.709000;-0.0304;0.2632;-0.4368;0.511
11.713000;-0.1362;0.2943;-0.5703;0.656
11.718000;-0.2082;0.2868;-0.6867;0.773
11.723000;-0.2293;0.3103;-0.7504;0.844
11.730000;-0.2330;0.3072;-0.8355;0.920
11.733000;-0.2172;0.2873;-0.8415;0.915
11.738000;-0.1769;0.2719;-0.8187;0.881
11.784000;-0.1633;0.3063;-0.7075;0.788
11.786000;-0.1145;0.3376;-0.5866;0.686
11.786000;-0.0618;0.3842;-0.4751;0.614
11.786000;0.0303;0.4413;-0.3945;0.593
11.786000;0.1303;0.5040;-0.3112;0.606
11.787000;0.2213;0.5673;-0.2921;0.675
11.787000;0.3300;0.6049;-0.2966;0.750
11.787000;0.4040;0.6313;-0.3389;0.823
11.787000;0.4749;0.6466;-0.4811;0.935
11.788000;0.5024;0.6778;-0.6206;1.047
11.791000;0.5447;0.6773;-0.7979;1.180
11.796000;0.5974;0.6575;-1.0300;1.360
11.801000;0.6110;0.6693;-1.1878;1.494
11.806000;0.6691;0.6773;-1.3385;1.643
11.811000;0.6851;0.6510;-1.4296;1.714
11.815000;0.7022;0.6623;-1.4708;1.759
11.821000;0.7107;0.6708;-1.4456;1.745
11.828000;0.7296;0.6837;-1.3324;1.666
11.829000;0.7777;0.7076;-1.2318;1.619
11.834000;0.7352;0.6921;-1.0336;1.445
11.840000;0.6692;0.6773;-0.8668;1.288
11.875000;0.5985;0.6798;-0.7076;1.149
11.876000;0.4868;0.6797;-0.5317;0.991
11.877000;0.3558;0.7006;-0.3966;0.880
11.877000;0.2295;0.6872;-0.3308;0.796
11.877000;0.1296;0.6846;-0.2910;0.755
11.878000;0.0848;0.6855;-0.2653;0.740
11.878000;0.0399;0.6469;-0.3206;0.723
11.879000;0.0142;0.6360;-0.2847;0.697
11.884000;0.0170;0.6143;-0.3179;0.692
11.889000;-0.0093;0.5895;-0.3173;0.670
11.898000;-0.0025;0.5806;-0.2784;0.644
11.899000;-0.0035;0.5875;-0.2082;0.623
11.904000;0.0136;0.5653;-0.0304;0.566
11.909000;0.0749;0.5207;0.0708;0.531
11.913000;0.0705;0.4798;0.1387;0.504
11.919000;0.1035;0.4497;0.2188;0.511
11.923000;0.1071;0.4303;0.2322;0.501
11.928000;0.0910;0.3930;0.1837;0.443
11.932000;0.0723;0.4052;0.1546;0.440
11.937000;0.0268;0.4263;0.2117;0.477
11.997000;0.0284;0.4186;0.2067;0.468
11.998000;0.0435;0.3583;0.2542;0.441
11.999000;0.0917;0.2960;0.3255;0.449
11.999000;0.1325;0.2603;0.3728;0.474
11.999000;0.1186;0.2322;0.4055;0.482
11.999000;0.0841;0.2880;0.4478;0.539
12.000000;0.0207;0.3699;0.4686;0.597
12.000000;-0.0617;0.4564;0.4894;0.672
12.000000;-0.1278;0.5019;0.4840;0.709
12.000000;-0.1000;0.5495;0.5145;0.759
12.001000;0.0107;0.5322;0.5594;0.772
12.001000;0.1287;0.4191;0.5900;0.735
12.001000;0.3229;0.3129;0.5824;0.736
12.007000;0.4520;0.2349;0.5820;0.773
12.011000;0.5340;0.1877;0.5221;0.770
12.017000;0.5408;0.2023;0.4097;0.708
12.021000;0.5231;0.2839;0.2951;0.664
12.028000;0.5043;0.3709;0.1780;0.651
12.030000;0.4840;0.3688;0.1084;0.618
12.036000;0.5236;0.3266;0.0739;0.621
12.040000;0.5585;0.2065;0.1150;0.606
12.071000;0.5675;0.0424;0.2148;0.608
12.072000;0.5085;-0.0866;0.5023;0.720
12.072000;0.4177;-0.1331;0.6260;0.764
12.072000;0.2435;-0.2051;1.1191;1.164
12.073000;0.0846;-0.2678;1.3267;1.356
12.073000;-0.0821;-0.3054;1.5936;1.625
12.079000;-0.1414;-0.3593;1.7956;1.837
12.080000;-0.1605;-0.3967;1.9257;1.973
12.085000;-0.1340;-0.4731;1.9985;2.058
12.090000;-0.1126;-0.5579;1.9664;2.047
12.094000;-0.0454;-0.6461;1.8559;1.966
12.099000;0.0483;-0.6898;1.7098;1.844
12.104000;0.1538;-0.7702;1.5785;1.763
12.110000;0.3274;-0.8082;1.4404;1.684
12.115000;0.4583;-0.8129;1.2882;1.591
12.119000;0.5481;-0.7863;1.1505;1.497
12.123000;0.6301;-0.8142;1.0511;1.471
12.129000;0.6205;-0.7914;1.0114;1.426
12.133000;0.5126;-0.7534;1.0409;1.383
12.138000;0.3281;-0.7053;1.1826;1.415
12.172000;0.0769;-0.6885;1.3504;1.518
12.173000;-0.1735;-0.7010;1.4488;1.619
12.173000;-0.3961;-0.7558;1.5285;1.751
12.173000;-0.5594;-0.8103;1.4508;1.753
12.173000;-0.7064;-0.8745;1.3356;1.746
12.174000;-0.7924;-0.9029;1.1519;1.664
12.174000;-0.9083;-0.8695;0.8878;1.539
12.180000;-0.9780;-0.8764;0.6270;1.455
12.183000;-0.9567;-0.8471;0.3717;1.331
12.187000;-0.9362;-0.8050;0.1507;1.244
12.193000;-0.8382;-0.7758;-0.1296;1.149
12.197000;-0.7376;-0.7664;-0.3473;1.119
12.201000;-0.6229;-0.6898;-0.5480;1.079
12.207000;-0.5061;-0.6847;-0.6960;1.100
12.212000;-0.4065;-0.7003;-0.7842;1.127
12.217000;-0.3214;-0.7126;-0.8630;1.164
12.221000;-0.2747;-0.6925;-0.9157;1.180
12.229000;-0.2733;-0.6878;-0.9495;1.204
12.231000;-0.2644;-0.6243;-0.9430;1.161
12.236000;-0.2788;-0.5759;-0.9059;1.109
12.240000;-0.2561;-0.5520;-0.8094;1.013
12.286000;-0.2246;-0.5765;-0.6443;0.893
12.287000;-0.1861;-0.6282;-0.4940;0.820
12.287000;-0.1999;-0.6760;-0.3418;0.783
12.288000;-0.2173;-0.7326;-0.2210;0.796
12.288000;-0.2452;-0.7311;-0.0934;0.777
12.288000;-0.2830;-0.7104;0.0412;0.766
12.289000;-0.2925;-0.6660;0.1207;0.737
12.289000;-0.2861;-0.6224;0.2218;0.720
12.289000;-0.2401;-0.5751;0.2512;0.672
12.290000;-0.2171;-0.5552;0.1973;0.628
12.295000;-0.1646;-0.5199;0.1318;0.561
12.299000;-0.0710;-0.5149;-0.0241;0.520
12.304000;-0.0036;-0.4631;-0.1700;0.493
12.310000;0.0681;-0.4387;-0.3417;0.560
12.314000;0.1466;-0.4197;-0.4988;0.668
12.319000;0.2173;-0.3818;-0.6292;0.767
12.324000;0.2897;-0.3245;-0.7716;0.886
12.329000;0.3304;-0.2951;-0.7968;0.912
12.334000;0.3801;-0.2314;-0.8270;0.939
12.339000;0.4158;-0.1760;-0.8407;0.954
12.350000;0.4329;-0.1960;-0.7735;0.908
12.351000;0.3819;-0.2221;-0.7281;0.852
12.354000;0.3756;-0.2470;-0.7070;0.838
12.417000;0.2757;-0.2666;-0.6550;0.759
12.419000;0.1851;-0.2451;-0.6630;0.731
12.420000;0.0442;-0.2137;-0.6425;0.679
12.420000;-0.0877;-0.1990;-0.6722;0.707
12.421000;-0.1706;-0.1701;-0.6612;0.704
12.421000;-0.2001;-0.1273;-0.7052;0.744
12.421000;-0.1868;-0.1304;-0.7083;0.744
12.421000;-0.1527;-0.1437;-0.7280;0.758
12.422000;-0.1006;-0.1075;-0.7356;0.750
12.422000;-0.0618;-0.0435;-0.7404;0.744
12.423000;-0.0172;0.0075;-0.7594;0.760
12.423000;0.0141;0.0048;-0.7757;0.776
12.423000;0.0489;0.0466;-0.8395;0.842
12.424000;0.0637;0.0660;-0.9269;0.931
12.426000;0.0470;0.0731;-1.0356;1.039
12.431000;-0.0006;0.0943;-1.1035;1.108
12.437000;-0.0169;0.1347;-1.1905;1.198
12.442000;-0.0972;0.1203;-1.2631;1.273
12.447000;-0.2030;0.1951;-1.3166;1.346
12.452000;-0.2649;0.2108;-1.3345;1.377
12.457000;-0.3070;0.2441;-1.2641;1.324
12.499000;-0.3487;0.2565;-1.2418;1.315
12.500000;-0.3690;0.2599;-1.1312;1.218
12.500000;-0.3518;0.2683;-1.0327;1.123
12.500000;-0.3260;0.3054;-0.9056;1.010
12.501000;-0.3130;0.3303;-0.7787;0.902
12.501000;-0.2841;0.3761;-0.6995;0.843
12.501000;-0.2173;0.4164;-0.6800;0.826
12.501000;-0.1627;0.4610;-0.5768;0.756
12.502000;-0.1470;0.5051;-0.5166;0.737
12.506000;-0.1029;0.5652;-0.4516;0.731
12.511000;-0.0829;0.6029;-0.4390;0.750
12.516000;-0.0606;0.6947;-0.4310;0.820
12.521000;-0.0935;0.6876;-0.4157;0.809
12.529000;-0.0957;0.7180;-0.3572;0.808
12.530000;-0.1013;0.7477;-0.3105;0.816
12.535000;-0.1312;0.7457;-0.2996;0.814
12.540000;-0.1875;0.7312;-0.3052;0.814
12.582000;-0.2314;0.7140;-0.2822;0.802
12.583000;-0.2364;0.6964;-0.2375;0.773
12.583000;-0.2410;0.6834;-0.2383;0.763
12.583000;-0.2093;0.6799;-0.2415;0.751
12.583000;-0.1511;0.6527;-0.2733;0.724
12.584000;-0.1239;0.6615;-0.2861;0.731
12.584000;-0.0659;0.6758;-0.2488;0.723
12.584000;-0.0134;0.6597;-0.1663;0.680
12.584000;-0.0072;0.6443;-0.0362;0.645
12.590000;-0.0259;0.6321;0.1318;0.646
12.594000;-0.0647;0.6154;0.3068;0.691
12.598000;-0.1545;0.5702;0.4696;0.755
12.604000;-0.2162;0.5318;0.6490;0.866
12.608000;-0.2758;0.4616;0.7973;0.962
12.614000;-0.3472;0.3954;0.9457;1.082
12.619000;-0.3851;0.3067;1.1038;1.209
12.624000;-0.3964;0.2240;1.2117;1.294
12.631000;-0.4337;0.1426;1.3031;1.381
12.633000;-0.4922;0.0983;1.4066;1.493
12.638000;-0.6264;0.1010;1.5461;1.671
12.695000;-0.7664;0.1791;1.6688;1.845
12.696000;-0.8906;0.2986;1.8061;2.036
12.696000;-0.9649;0.3778;1.8480;2.119
12.696000;-0.9248;0.3905;1.7779;2.042
12.697000;-0.8067;0.3394;1.6915;1.905
12.697000;-0.6499;0.2560;1.6033;1.749
12.697000;-0.5342;0.2124;1.4915;1.598
12.698000;-0.4574;0.1324;1.3872;1.467
12.698000;-0.4050;0.1501;1.2545;1.327
12.698000;-0.3915;0.1557;1.1556;1.230
12.699000;-0.4143;0.2385;1.0806;1.182
12.699000;-0.4309;0.3051;1.0653;1.189
12.702000;-0.4200;0.3204;1.0211;1.150
12.708000;-0.3392;0.3442;1.0054;1.116
12.712000;-0.2554;0.3412;1.0084;1.095
12.717000;-0.1137;0.3068;0.9584;1.013
12.722000;0.0529;0.1721;1.3333;1.345
12.731000;0.2278;0.1210;1.3416;1.366
12.734000;0.4003;0.0887;1.4281;1.486
12.736000;0.5664;0.0199;1.5428;1.644
12.740000;0.7317;-0.0691;1.5684;1.732
12.791000;0.8847;-0.1828;1.5648;1.807
12.793000;1.0109;-0.3094;1.5297;1.859
12.793000;1.0744;-0.4702;1.4940;1.899
12.793000;1.0896;-0.6147;1.4196;1.892
12.794000;0.9992;-0.7264;1.4260;1.887
12.794000;0.8274;-0.8148;1.3841;1.807
12.794000;0.6150;-0.8562;1.4277;1.775
12.795000;0.3074;-0.8818;1.4826;1.752
12.795000;0.0912;-0.9021;1.5588;1.803
12.795000;-0.0961;-0.8986;1.6157;1.851
12.796000;-0.2999;-0.9200;1.5915;1.863
12.803000;-0.4226;-0.9043;1.5460;1.840
12.805000;-0.5052;-0.9025;1.4676;1.795
12.810000;-0.5577;-0.8768;1.3540;1.707
12.816000;-0.5879;-0.8467;1.2056;1.586
12.820000;-0.5796;-0.7864;0.9984;1.397
12.824000;-0.5317;-0.7390;0.7638;1.188
12.831000;-0.5117;-0.6707;0.5017;0.982
12.834000;-0.4819;-0.5598;0.2073;0.767
12.839000;-0.4787;-0.4180;-0.0811;0.641
12.883000;-0.4665;-0.3496;-0.3304;0.670
12.884000;-0.4192;-0.2631;-0.5265;0.723
12.884000;-0.3727;-0.2344;-0.7722;0.889
12.885000;-0.3072;-0.1914;-0.9673;1.033
12.885000;-0.2389;-0.2100;-1.1958;1.237
12.885000;-0.2032;-0.1750;-1.4026;1.428
12.885000;-0.1375;-0.1577;-1.5809;1.595
12.886000;-0.0629;-0.1073;-1.7069;1.711
12.886000;-0.0152;-0.0737;-1.7785;1.780
12.888000;0.0557;-0.0400;-1.8387;1.840
12.893000;0.1377;-0.0154;-1.8422;1.847
12.898000;0.2192;-0.0357;-1.8610;1.874
12.903000;0.2908;0.0068;-1.8089;1.832
12.908000;0.3381;-0.0126;-1.7169;1.750
12.913000;0.3834;0.0016;-1.6330;1.677
12.918000;0.3983;0.0226;-1.5331;1.584
12.922000;0.3809;0.0574;-1.4171;1.468
12.928000;0.3475;0.0386;-1.2729;1.320
12.937000;0.3031;0.0377;-1.1437;1.184
12.940000;0.2620;0.0569;-1.0148;1.050
12.941000;0.2335;0.0356;-0.8551;0.887
13.025000;0.1797;0.0191;-0.7841;0.805
13.028000;0.1412;-0.0075;-0.7058;0.720
13.028000;0.0963;-0.0254;-0.6752;0.682
13.029000;0.0117;-0.0323;-0.6754;0.676
13.030000;-0.0658;-0.0329;-0.6801;0.684
13.030000;-0.1294;-0.0394;-0.6869;0.700
13.030000;-0.1870;-0.0279;-0.7124;0.737
13.031000;-0.2577;-0.0580;-0.7472;0.792
13.031000;-0.3199;-0.0723;-0.8127;0.876
13.031000;-0.3115;-0.1017;-0.8109;0.875
13.031000;-0.3017;-0.0888;-0.8280;0.886
13.032000;-0.2591;-0.0956;-0.8282;0.873
13.032000;-0.2551;-0.0959;-0.8330;0.876
13.032000;-0.2229;-0.0489;-0.8496;0.880
13.032000;-0.1503;-0.0213;-0.8780;0.891
13.033000;-0.0946;0.0205;-0.8658;0.871
13.033000;-0.0864;0.0574;-0.8607;0.867
13.033000;-0.0633;0.0632;-0.8317;0.837
13.035000;-0.0685;0.0903;-0.8004;0.808
13.040000;-0.0541;0.1149;-0.8002;0.810
13.046000;-0.0155;0.1179;-0.7927;0.802
13.049000;0.0330;0.0995;-0.8045;0.811
13.054000;0.0218;0.1074;-0.7852;0.793
13.059000;0.0155;0.0986;-0.7300;0.737
13.064000;0.0472;0.1088;-0.7227;0.732
13.068000;0.0783;0.1237;-0.6651;0.681
13.073000;0.0586;0.1695;-0.6435;0.668
13.106000;0.0790;0.1887;-0.6241;0.657
13.106000;0.1371;0.1935;-0.6717;0.712
13.107000;0.1923;0.1746;-0.7335;0.778
13.107000;0.2759;0.1793;-0.7570;0.825
13.107000;0.3259;0.1844;-0.7925;0.876
13.107000;0.4137;0.2064;-0.8328;0.952
13.107000;0.4103;0.2265;-0.8396;0.962
13.114000;0.4161;0.2639;-0.8203;0.957
13.118000;0.4863;0.3112;-0.7438;0.942
13.123000;0.5088;0.3353;-0.6412;0.885
13.128000;0.5533;0.3763;-0.4672;0.816
13.133000;0.5938;0.4194;-0.3100;0.790
13.138000;0.6160;0.4642;-0.2438;0.809
13.142000;0.5822;0.4100;-0.2013;0.740
13.147000;0.5434;0.3812;-0.1922;0.691
13.152000;0.5142;0.3605;-0.2163;0.664
13.157000;0.4325;0.3721;-0.2880;0.639
13.192000;0.3481;0.4663;-0.3809;0.695
13.193000;0.2677;0.5476;-0.4759;0.773
13.193000;0.1905;0.6259;-0.5707;0.868
13.193000;0.1660;0.6462;-0.6533;0.934
13.193000;0.1645;0.6664;-0.7668;1.029
13.194000;0.1879;0.6771;-0.7916;1.059
13.194000;0.2403;0.6859;-0.8093;1.088
13.199000;0.2549;0.7431;-0.7578;1.092
13.201000;0.2774;0.7410;-0.6587;1.030
13.207000;0.2893;0.7513;-0.5477;0.974
13.212000;0.3004;0.7477;-0.3988;0.899
13.216000;0.2921;0.7252;-0.2381;0.817
13.221000;0.2461;0.6959;-0.1017;0.745
13.226000;0.2083;0.6762;0.0489;0.709
13.231000;0.1049;0.6110;0.1850;0.647
13.236000;0.0413;0.5836;0.3448;0.679
13.241000;-0.0329;0.5104;0.4902;0.708
13.250000;-0.0628;0.4361;0.6070;0.750
13.253000;-0.0844;0.3442;0.6856;0.772
13.257000;-0.1009;0.2679;0.7525;0.805
13.260000;-0.0839;0.2097;0.7861;0.818
13.315000;-0.0580;0.2102;0.8201;0.849
13.316000;-0.0356;0.2265;0.9068;0.935
13.316000;-0.0025;0.3018;0.9315;0.979
13.316000;0.0225;0.4146;0.9732;1.058
13.317000;0.0497;0.5383;0.9624;1.104
13.317000;0.0584;0.6539;0.9854;1.184
13.317000;0.1106;0.7091;1.0180;1.246
13.317000;0.1748;0.6752;1.0459;1.257
13.318000;0.2507;0.6193;1.0788;1.269
13.318000;0.3476;0.4959;1.0951;1.251
13.318000;0.4081;0.3698;1.0566;1.192
13.319000;0.4160;0.3076;0.9849;1.113
13.324000;0.3024;0.2524;0.8847;0.968
13.328000;0.1632;0.2735;0.7775;0.840
13.333000;0.0150;0.3070;0.7014;0.766
13.338000;-0.1255;0.3219;0.6946;0.776
13.342000;-0.2472;0.3001;0.6897;0.792
13.348000;-0.3264;0.1962;0.6917;0.790
13.352000;-0.3874;0.1060;0.7434;0.845
13.357000;-0.4064;-0.0421;0.8281;0.923
13.401000;-0.4385;-0.1380;0.9241;1.032
13.401000;-0.4238;-0.2150;0.9692;1.079
13.401000;-0.4318;-0.2543;1.0568;1.170
13.402000;-0.4267;-0.2416;1.1176;1.220
13.402000;-0.3730;-0.2369;1.3953;1.464
13.402000;-0.2923;-0.2279;1.2014;1.257
13.402000;-0.1822;-0.1504;1.2559;1.278
13.403000;0.0054;-0.1121;1.5011;1.505
13.403000;0.2654;-0.0842;1.5831;1.607
13.406000;0.4955;-0.0292;1.6433;1.717
13.411000;0.7033;-0.0355;1.7151;1.854
13.416000;0.9038;-0.0269;1.7342;1.956
13.421000;1.0708;-0.1060;1.7626;2.065
13.426000;1.1382;-0.1773;1.7788;2.119
13.432000;1.1303;-0.2860;1.7925;2.138
13.435000;1.0242;-0.3514;1.7917;2.093
13.441000;0.8041;-0.4139;1.8170;2.030
13.485000;0.5423;-0.4453;1.7705;1.904
13.486000;0.1936;-0.4604;1.7479;1.818
13.487000;-0.0911;-0.5121;1.7207;1.798
13.487000;-0.3573;-0.6007;1.6722;1.812
13.487000;-0.5607;-0.6525;1.5428;1.766
13.487000;-0.7371;-0.7395;1.4428;1.781
13.488000;-0.8490;-0.7640;1.2716;1.709
13.488000;-0.9614;-0.7811;1.1109;1.664
13.488000;-0.9752;-0.7529;0.9581;1.561
13.489000;-0.9511;-0.6770;0.7466;1.386
13.494000;-0.8928;-0.6035;0.5670;1.218
13.500000;-0.8228;-0.5014;0.3501;1.025
13.504000;-0.7352;-0.4324;0.1962;0.875
13.509000;-0.6227;-0.3580;0.0168;0.718
13.514000;-0.5049;-0.3331;-0.1523;0.624
13.519000;-0.3837;-0.3311;-0.3448;0.613
13.524000;-0.3064;-0.2798;-0.5127;0.660
13.535000;-0.2195;-0.2629;-0.6802;0.762
13.537000;-0.1440;-0.2437;-0.8546;0.900
13.540000;-0.1517;-0.1932;-0.9905;1.020
13.544000;-0.0988;-0.1564;-1.1407;1.156
13.599000;-0.0755;-0.1449;-1.2455;1.256
13.600000;0.0024;-0.2105;-1.3507;1.367
13.601000;0.0374;-0.2528;-1.3845;1.408
13.601000;0.0995;-0.3526;-1.4213;1.468
13.601000;0.1052;-0.4286;-1.4395;1.506
13.601000;0.0762;-0.5118;-1.4153;1.507
13.602000;0.0267;-0.5186;-1.3751;1.470
13.602000;-0.0387;-0.5185;-1.2877;1.389
13.602000;-0.1131;-0.5379;-1.1628;1.286
13.603000;-0.1921;-0.5557;-1.0337;1.189
13.603000;-0.2041;-0.5960;-0.8381;1.048
13.603000;-0.2093;-0.6044;-0.7411;0.979
13.608000;-0.1695;-0.6219;-0.5821;0.868
13.614000;-0.1253;-0.6726;-0.4424;0.815
13.618000;-0.0456;-0.6563;-0.3006;0.723
13.623000;0.0097;-0.6620;-0.1731;0.684
13.627000;0.0477;-0.6494;-0.0957;0.658
13.632000;0.0860;-0.6042;-0.0659;0.614
13.638000;0.1178;-0.5915;-0.0741;0.608
13.642000;0.1337;-0.5583;-0.1107;0.585
13.650000;0.1343;-0.5838;-0.2115;0.635
13.651000;0.1598;-0.5743;-0.3119;0.673
13.657000;0.1788;-0.5727;-0.4407;0.744
13.662000;0.1817;-0.5836;-0.5836;0.845
13.705000;0.1731;-0.5634;-0.7215;0.932
13.707000;0.1745;-0.5383;-0.8068;0.985
13.707000;0.1737;-0.5245;-0.8802;1.039
13.707000;0.1470;-0.4932;-0.8629;1.005
13.708000;0.1084;-0.4322;-0.8339;0.945
13.708000;0.0629;-0.4114;-0.7358;0.845
13.708000;0.0611;-0.3925;-0.6595;0.770
13.708000;0.0074;-0.3783;-0.6073;0.716
13.709000;-0.0070;-0.3904;-0.5766;0.696
13.710000;-0.0754;-0.3670;-0.5962;0.704
13.716000;-0.0996;-0.3799;-0.6466;0.757
13.720000;-0.1562;-0.3622;-0.6659;0.774
13.725000;-0.1618;-0.3810;-0.7352;0.844
13.733000;-0.1885;-0.3117;-0.8019;0.881
13.735000;-0.2369;-0.2815;-0.8874;0.961
13.740000;-0.2422;-0.2829;-0.9894;1.057
13.745000;-0.1878;-0.2107;-1.0912;1.127
13.788000;-0.1338;-0.1606;-1.2118;1.230
13.789000;-0.0872;-0.1158;-1.2843;1.292
13.789000;0.0135;-0.0402;-1.3901;1.391
13.789000;0.1201;0.0208;-1.4312;1.436
13.789000;0.2200;0.0862;-1.5198;1.538
13.790000;0.3157;0.1516;-1.5582;1.597
13.790000;0.3904;0.1907;-1.5917;1.650
13.790000;0.4801;0.2374;-1.6229;1.709
13.790000;0.5300;0.2776;-1.6087;1.716
13.794000;0.5669;0.2901;-1.5734;1.697
13.799000;0.5315;0.3660;-1.5192;1.651
13.804000;0.4892;0.3835;-1.4058;1.537
13.809000;0.4213;0.4098;-1.2523;1.383
13.814000;0.3664;0.4021;-1.0924;1.220
13.819000;0.2678;0.3647;-0.9068;1.013
13.824000;0.2000;0.3381;-0.7409;0.839
13.828000;0.0700;0.3146;-0.5659;0.651
13.834000;-0.0577;0.3105;-0.3864;0.499
13.839000;-0.2099;0.3019;-0.2312;0.434
13.843000;-0.3464;0.3189;-0.0521;0.474
13.852000;-0.4774;0.3182;0.1055;0.583
13.853000;-0.6130;0.3349;0.2060;0.728
13.858000;-0.6839;0.3377;0.2591;0.806
13.862000;-0.7120;0.3428;0.2745;0.837
13.920000;-0.7146;0.3622;0.2284;0.833
13.922000;-0.6565;0.3840;0.1567;0.777
13.922000;-0.5738;0.3894;0.0284;0.694
13.922000;-0.5005;0.4576;-0.0898;0.684
13.923000;-0.4103;0.4883;-0.1787;0.662
13.923000;-0.3612;0.5349;-0.2600;0.696
13.923000;-0.2954;0.5952;-0.3267;0.740
13.924000;-0.2438;0.6072;-0.4194;0.777
13.924000;-0.2343;0.6120;-0.4976;0.823
13.924000;-0.2381;0.6222;-0.5495;0.864
13.924000;-0.2379;0.6285;-0.5633;0.877
13.925000;-0.3022;0.6551;-0.5033;0.880
13.926000;-0.2965;0.6211;-0.4222;0.807
13.931000;-0.2994;0.5839;-0.2652;0.708
13.936000;-0.2985;0.5145;-0.0658;0.598
13.941000;-0.2986;0.4486;0.1953;0.573
13.946000;-0.2855;0.3858;0.4653;0.668
13.952000;-0.3022;0.3541;0.7828;0.911
13.955000;-0.3031;0.3026;1.0092;1.096
13.960000;-0.3648;0.2594;1.2500;1.328
14.018000;-0.4179;0.2863;1.4335;1.520
14.018000;-0.4983;0.3444;1.5289;1.645
14.018000;-0.5846;0.4406;1.5555;1.719
14.019000;-0.6247;0.5177;1.5540;1.753
14.019000;-0.5668;0.5399;1.5244;1.714
14.019000;-0.4769;0.5221;1.4739;1.635
14.019000;-0.4230;0.4005;1.4669;1.578
14.019000;-0.3170;0.2974;1.4674;1.530
14.020000;-0.2016;0.2253;1.4919;1.522
14.020000;-0.1218;0.1838;1.4880;1.504
14.020000;-0.1556;0.1665;1.4723;1.490
14.021000;-0.2403;0.1922;1.5378;1.568
14.024000;-0.2488;0.2495;1.5984;1.637
14.029000;-0.2644;0.2683;1.7044;1.746
14.034000;-0.2579;0.2228;1.7386;1.772
14.039000;-0.1648;0.1251;1.8156;1.827
14.044000;-0.1067;0.0538;1.8352;1.839
14.052000;-0.0047;-0.0414;1.7663;1.767
14.054000;0.0511;-0.0268;1.6857;1.687
14.058000;0.1349;-0.0462;1.7988;1.804
14.063000;0.2085;-0.0108;1.5509;1.565
14.110000;0.2977;0.0030;1.3487;1.381
14.111000;0.3880;0.0316;1.1944;1.256
14.111000;0.5196;-0.0203;1.0066;1.133
14.112000;0.6175;-0.0375;0.8330;1.038
14.112000;0.7297;-0.1199;0.6496;0.984
14.112000;0.8006;-0.1427;0.5087;0.959
14.113000;0.8615;-0.1414;0.4749;0.994
14.113000;0.8691;-0.1709;0.4570;0.997
14.113000;0.8448;-0.2094;0.4527;0.981
14.113000;0.7602;-0.2735;0.5406;0.972
14.119000;0.6802;-0.3492;0.7160;1.048
14.122000;0.5960;-0.4823;0.9263;1.202
14.127000;0.4940;-0.6255;1.1406;1.392
14.132000;0.4130;-0.7054;1.3733;1.598
14.138000;0.2866;-0.7849;1.5506;1.761
14.141000;0.1317;-0.8050;1.6703;1.859
14.146000;0.0085;-0.8219;1.7377;1.922
14.152000;-0.1186;-0.8028;1.7171;1.899
14.156000;-0.2283;-0.7600;1.5825;1.770
14.161000;-0.3041;-0.7371;1.4106;1.620
14.208000;-0.3447;-0.7124;1.1180;1.370
14.209000;-0.3868;-0.6523;0.8219;1.118
14.209000;-0.3526;-0.5589;0.4886;0.822
14.210000;-0.3269;-0.5084;0.1901;0.634
14.210000;-0.2486;-0.3951;-0.1099;0.480
14.210000;-0.1660;-0.3599;-0.3730;0.544
14.211000;-0.1009;-0.2797;-0.6690;0.732
14.211000;-0.0268;-0.2070;-0.9358;0.959
14.211000;0.0159;-0.1628;-1.1902;1.201
14.212000;0.0444;-0.0580;-1.3872;1.389
14.217000;0.0880;0.0052;-1.6011;1.604
14.220000;0.1186;0.0439;-1.7244;1.729
14.225000;0.1510;0.0780;-1.8389;1.847
14.230000;0.1905;0.1056;-1.8825;1.895
14.235000;0.2159;0.1266;-1.9055;1.922
14.239000;0.2109;0.1246;-1.8651;1.881
14.245000;0.1950;0.0902;-1.8043;1.817
14.304000;0.1756;0.0710;-1.7375;1.748
14.305000;0.1717;0.0475;-1.6551;1.665
14.305000;0.1546;0.0076;-1.5234;1.531
14.305000;0.1258;-0.0156;-1.3759;1.382
14.306000;0.0757;-0.0700;-1.2627;1.267
14.306000;0.0063;-0.1036;-1.0880;1.093
14.306000;-0.0638;-0.1050;-0.9520;0.960
14.306000;-0.1157;-0.1299;-0.7924;0.811
14.307000;-0.1710;-0.1186;-0.6305;0.664
14.307000;-0.1653;-0.1079;-0.5332;0.569
14.307000;-0.1753;-0.1124;-0.4141;0.464
14.308000;-0.1819;-0.1445;-0.3425;0.414
14.308000;-0.1567;-0.1013;-0.2586;0.319
14.314000;-0.1379;-0.0880;-0.2197;0.274
14.319000;-0.1327;-0.0431;-0.0824;0.162
14.323000;-0.1456;-0.0138;0.0218;0.148
14.328000;-0.1424;0.0162;0.0738;0.161
14.335000;-0.1560;-0.0300;0.1312;0.206
14.338000;-0.1592;-0.0472;0.1269;0.209
14.342000;-0.1802;-0.1048;0.0731;0.221
14.346000;-0.2137;-0.0832;-0.0350;0.232
14.403000;-0.2238;-0.0801;-0.2071;0.315
14.404000;-0.2701;-0.0547;-0.3762;0.466
14.404000;-0.2456;0.0219;-0.5543;0.607
14.405000;-0.2440;0.0832;-0.7296;0.774
14.405000;-0.1631;0.1152;-0.9045;0.926
14.405000;-0.0992;0.1732;-1.0934;1.111
14.405000;-0.0021;0.2195;-1.2416;1.261
14.406000;0.0657;0.2422;-1.4160;1.438
14.406000;0.1356;0.2634;-1.5162;1.545
14.406000;0.2052;0.3524;-1.6095;1.660
14.406000;0.2725;0.3756;-1.6624;1.726
14.407000;0.3396;0.4335;-1.6846;1.772
14.410000;0.3759;0.4542;-1.6831;1.783
14.416000;0.4173;0.4643;-1.7131;1.823
14.421000;0.4472;0.4755;-1.7387;1.857
14.425000;0.4438;0.5141;-1.7454;1.873
14.430000;0.3977;0.5419;-1.6976;1.826
14.435000;0.3972;0.5757;-1.6214;1.766
14.440000;0.4155;0.5697;-1.4596;1.621
14.445000;0.4502;0.5474;-1.3315;1.508
14.453000;0.4701;0.5586;-1.2418;1.441
14.457000;0.4757;0.5599;-1.1904;1.399
14.463000;0.4887;0.5632;-1.1246;1.349
14.464000;0.5113;0.5707;-1.0945;1.336
14.520000;0.5217;0.5824;-1.0882;1.340
14.522000;0.5194;0.5458;-1.0865;1.322
14.522000;0.5283;0.5520;-1.1038;1.342
14.522000;0.5434;0.5438;-1.1187;1.357
14.523000;0.5438;0.5718;-1.1455;1.391
14.523000;0.5296;0.5764;-1.0960;1.347
14.523000;0.5057;0.6198;-1.0109;1.289
14.523000;0.4914;0.6565;-0.8687;1.195
14.524000;0.4030;0.6485;-0.7173;1.048
14.524000;0.2891;0.6243;-0.5877;0.905
14.524000;0.2171;0.5814;-0.4226;0.751
14.524000;0.1276;0.5457;-0.2481;0.613
14.528000;0.0590;0.4740;-0.1026;0.489
14.534000;0.0137;0.4469;0.0430;0.449
14.538000;-0.0588;0.4112;0.1075;0.429
14.542000;-0.0821;0.3837;0.1413;0.417
14.548000;-0.1190;0.3835;0.1729;0.437
14.553000;-0.1366;0.4389;0.1739;0.491
14.557000;-0.1115;0.4976;0.2112;0.552
14.562000;-0.1207;0.5740;0.2274;0.629
14.600000;-0.1026;0.6127;0.3252;0.701
14.601000;-0.0577;0.6807;0.4426;0.814
14.601000;0.0234;0.6991;0.5006;0.860
14.601000;0.0645;0.6798;0.5495;0.877
14.601000;0.1497;0.6586;0.5584;0.876
14.601000;0.1930;0.5973;0.5223;0.817
14.602000;0.2071;0.5468;0.4723;0.752
14.603000;0.2260;0.5191;0.4466;0.721
14.606000;0.3073;0.4383;0.4140;0.677
14.611000;0.3940;0.3762;0.3767;0.662
14.616000;0.4502;0.3075;0.3513;0.649
14.624000;0.5215;0.2248;0.3378;0.661
14.626000;0.5271;0.2027;0.3432;0.661
14.631000;0.4343;0.2223;0.3842;0.621
14.636000;0.2678;0.2787;0.3865;0.547
14.641000;0.1118;0.4192;0.4412;0.619
14.646000;-0.0244;0.5263;0.4550;0.696
14.653000;-0.0512;0.5615;0.4832;0.743
14.655000;0.0273;0.4990;0.5089;0.713
14.660000;0.1570;0.4008;0.5466;0.696
14.665000;0.2984;0.2336;0.5579;0.674
14.722000;0.4423;0.1453;0.5430;0.715
14.723000;0.5056;0.0691;0.5139;0.724
14.723000;0.4563;0.0930;0.4897;0.676
14.724000;0.3117;0.2003;0.4728;0.601
14.724000;0.1699;0.2859;0.4654;0.572
14.724000;0.0731;0.3142;0.4605;0.562
14.725000;-0.0107;0.2116;0.4482;0.496
14.725000;-0.0468;0.0480;0.4453;0.450
14.725000;-0.1433;-0.1046;0.4133;0.450
14.725000;-0.2209;-0.2290;0.4216;0.528
14.726000;-0.3317;-0.3870;0.5104;0.721
14.726000;-0.4479;-0.4426;0.4242;0.759
14.728000;-0.5930;-0.4772;0.3662;0.845
14.733000;-0.6877;-0.5292;0.5253;1.014
14.738000;-0.7586;-0.5313;0.6357;1.123
14.744000;-0.7366;-0.4982;0.7718;1.177
14.748000;-0.6474;-0.4900;0.8905;1.205
14.753000;-0.5052;-0.4543;1.0446;1.246
14.758000;-0.2878;-0.3676;1.2341;1.319
14.763000;-0.0784;-0.3356;1.4112;1.453
14.809000;0.1495;-0.2898;1.5238;1.558
14.809000;0.3147;-0.2259;1.6197;1.665
14.810000;0.3912;-0.1632;1.6369;1.691
14.810000;0.3955;-0.1044;1.5947;1.646
14.810000;0.3586;-0.0783;1.4742;1.519
14.810000;0.2944;-0.0541;1.3137;1.347
14.811000;0.2074;-0.0743;1.1467;1.168
14.811000;0.0893;-0.0836;0.9778;0.985
14.811000;-0.0438;-0.1247;0.7854;0.796
14.812000;-0.1923;-0.1494;0.6317;0.677
14.817000;-0.3232;-0.2028;0.4590;0.597
14.821000;-0.4989;-0.1960;0.3917;0.664
14.827000;-0.6613;-0.1912;0.3195;0.759
14.831000;-0.7546;-0.1522;0.2807;0.819
14.838000;-0.8000;-0.1773;0.3159;0.878
14.841000;-0.8022;-0.1638;0.3629;0.896
14.846000;-0.7658;-0.1596;0.3691;0.865
14.908000;-0.7167;-0.1509;0.3778;0.824
14.909000;-0.6452;-0.1880;0.3722;0.768
14.909000;-0.5873;-0.1682;0.3309;0.695
14.909000;-0.5386;-0.1728;0.2660;0.625
14.910000;-0.5187;-0.1443;0.2179;0.581
14.910000;-0.5208;-0.1065;0.1222;0.545
14.910000;-0.5118;-0.0857;0.0577;0.522
14.910000;-0.4566;-0.0744;-0.0138;0.463
14.910000;-0.4202;-0.1058;-0.0854;0.442
14.911000;-0.3982;-0.1178;-0.1545;0.443
14.911000;-0.3834;-0.1628;-0.2404;0.481
14.911000;-0.4025;-0.2142;-0.3263;0.561
14.912000;-0.4028;-0.2741;-0.3766;0.616
14.915000;-0.4201;-0.3158;-0.4558;0.696
14.919000;-0.4591;-0.3316;-0.4901;0.749
14.925000;-0.4661;-0.3669;-0.3957;0.713
14.930000;-0.4478;-0.4410;-0.2972;0.695
14.937000;-0.3914;-0.5203;-0.1778;0.675
14.942000;-0.3394;-0.5739;-0.0112;0.667
14.944000;-0.2719;-0.6308;0.1524;0.704
14.949000;-0.2122;-0.6461;0.2869;0.738
15.006000;-0.1503;-0.6776;0.3972;0.800
15.007000;-0.1026;-0.6611;0.4786;0.823
15.007000;-0.0283;-0.6759;0.5862;0.895
15.007000;0.0322;-0.6583;0.6199;0.905
15.007000;0.0788;-0.6776;0.6776;0.962
15.008000;0.1273;-0.6820;0.6521;0.952
15.008000;0.1604;-0.6404;0.6032;0.894
15.008000;0.1539;-0.6321;0.4641;0.799
15.008000;0.1622;-0.6258;0.3281;0.725
15.009000;0.1776;-0.5642;0.1331;0.606
15.009000;0.1685;-0.5643;-0.0468;0.591
15.009000;0.1418;-0.5086;-0.2380;0.579
15.013000;0.0900;-0.4731;-0.3976;0.625
15.018000;0.0204;-0.4189;-0.5760;0.712
15.023000;-0.0619;-0.4031;-0.7015;0.811
15.028000;-0.1278;-0.4090;-0.8029;0.910
15.032000;-0.1742;-0.4196;-0.8325;0.948
15.037000;-0.1912;-0.4254;-0.9410;1.050
15.042000;-0.2193;-0.3928;-0.9873;1.085
15.047000;-0.2031;-0.3769;-1.0478;1.132
15.054000;-0.1880;-0.3201;-1.1730;1.230
15.057000;-0.1907;-0.2750;-1.2646;1.308
15.062000;-0.1447;-0.2152;-1.3133;1.339
15.113000;-0.0863;-0.1693;-1.3787;1.392
15.114000;-0.0377;-0.1706;-1.4276;1.438
15.114000;0.0173;-0.1330;-1.4478;1.454
15.114000;0.0451;-0.0921;-1.4325;1.436
15.115000;0.0716;-0.0648;-1.4196;1.423
15.115000;0.0870;-0.0344;-1.3497;1.353
15.115000;0.0891;-0.0036;-1.2918;1.295
15.115000;0.1281;0.0227;-1.2055;1.212
15.116000;0.1274;0.0397;-1.1287;1.137
15.116000;0.1593;0.0567;-1.0330;1.047
15.116000;0.1475;0.0854;-0.9660;0.981
15.121000;0.1881;0.1596;-0.9039;0.937
15.126000;0.1855;0.1712;-0.8776;0.913
15.131000;0.2259;0.2329;-0.8250;0.887
15.141000;0.2973;0.2752;-0.7676;0.868
15.142000;0.3544;0.3005;-0.7079;0.847
15.145000;0.3879;0.3254;-0.6386;0.815
15.150000;0.4101;0.3525;-0.6315;0.831
15.156000;0.4497;0.3982;-0.6339;0.873
15.160000;0.4399;0.4365;-0.5979;0.861
15.164000;0.4424;0.4767;-0.5643;0.861
15.202000;0.4308;0.5097;-0.5069;0.838
15.203000;0.3907;0.5210;-0.4877;0.814
15.204000;0.3535;0.5299;-0.4471;0.778
15.204000;0.3024;0.4959;-0.4567;0.739
15.204000;0.2471;0.4691;-0.4210;0.677
15.204000;0.1639;0.4879;-0.3734;0.636
15.204000;0.0814;0.4661;-0.2542;0.537
15.205000;0.0378;0.4541;-0.1519;0.480
15.209000;-0.0501;0.3871;-0.1119;0.406
15.214000;-0.1292;0.3510;-0.0456;0.377
15.219000;-0.2281;0.2954;0.0206;0.374
15.224000;-0.3156;0.2486;0.0917;0.412
15.228000;-0.4041;0.2296;0.1175;0.479
15.233000;-0.4754;0.1879;0.1245;0.526
15.239000;-0.5594;0.2643;0.1439;0.635
15.243000;-0.5518;0.3274;0.1827;0.667
15.248000;-0.5253;0.3914;0.2171;0.690
15.287000;-0.4225;0.4231;0.2925;0.666
15.288000;-0.2960;0.4202;0.3681;0.632
15.288000;-0.1964;0.4305;0.5013;0.689
15.288000;-0.0781;0.4112;0.5989;0.731
15.288000;0.0473;0.4194;0.7253;0.839
15.289000;0.1085;0.4269;0.8041;0.917
15.289000;0.1617;0.4264;0.9022;1.011
15.289000;0.1623;0.4276;0.9095;1.018
15.291000;0.1873;0.3664;0.9074;0.996
15.296000;0.2063;0.3506;0.9817;1.063
15.301000;0.2217;0.3135;1.0368;1.106
15.307000;0.2286;0.3293;1.1276;1.197
15.311000;0.2030;0.3430;1.2278;1.291
15.316000;0.1525;0.3615;1.3373;1.394
15.321000;0.1728;0.3220;1.4421;1.488
15.326000;0.2274;0.2484;1.5684;1.604
15.331000;0.3108;0.1546;1.6496;1.686
15.339000;0.4465;0.0407;1.7668;1.823
15.344000;0.5501;-0.0816;1.8317;1.914
15.345000;0.6124;-0.1382;1.8564;1.960
15.350000;0.6149;-0.1651;1.7931;1.903
15.387000;0.5368;-0.0951;1.7278;1.812
15.388000;0.4913;-0.0166;1.6533;1.725
15.388000;0.4333;0.0875;1.5457;1.608
15.388000;0.4370;0.2057;1.3760;1.458
15.389000;0.5049;0.2359;1.2136;1.335
15.389000;0.6273;0.2190;1.0129;1.211
15.389000;0.7997;0.1156;0.9552;1.251
15.390000;0.9646;0.0451;0.5027;1.089
15.394000;1.1244;-0.0728;0.3296;1.174
15.400000;1.2115;-0.1897;0.1341;1.234
15.405000;1.2943;-0.3334;-0.0744;1.339
15.410000;1.3219;-0.4485;-0.2243;1.414
15.414000;1.2101;-0.5823;-0.2465;1.365
15.419000;1.0350;-0.6937;-0.2560;1.272
15.424000;0.7490;-0.7849;-0.1573;1.096
15.428000;0.4316;-0.8995;0.0377;0.998
15.433000;0.1244;-0.9923;0.3290;1.053
15.441000;-0.1986;-1.0862;0.5855;1.250
15.445000;-0.4436;-1.1532;0.8838;1.519
15.449000;-0.7226;-1.1639;1.1576;1.794
15.455000;-0.9421;-1.1668;1.4310;2.073
15.513000;-1.0732;-1.1468;1.6758;2.297
15.513000;-1.1850;-1.1168;1.8445;2.460
15.514000;-1.2635;-1.1025;1.9568;2.577
15.514000;-1.2633;-1.0665;1.9198;2.534
15.514000;-1.1663;-1.0336;1.7411;2.337
15.515000;-1.0305;-0.9588;1.4306;2.007
15.515000;-0.8549;-0.8899;1.0766;1.638
15.515000;-0.7125;-0.7520;0.6553;1.226
15.515000;-0.5785;-0.5949;0.2143;0.857
15.516000;-0.4966;-0.4797;-0.2348;0.729
