time;ax;ay;az;aT
0.003000;-0.1341;0.0824;-0.2262;0.276
0.003000;-0.0978;0.0556;-0.7642;0.772
0.006000;-0.0107;-0.0537;-1.1577;1.159
0.012000;0.0739;-0.1682;-1.3816;1.394
0.016000;0.1088;-0.2041;-1.4754;1.493
0.020000;0.0796;-0.1760;-1.4542;1.467
0.029000;0.0116;-0.0676;-1.2734;1.275
0.031000;-0.0509;0.0720;-0.9788;0.983
0.038000;-0.1074;0.1653;-0.6231;0.654
0.041000;-0.1024;0.2325;-0.2441;0.352
0.048000;-0.0642;0.2318;0.0824;0.254
0.050000;-0.0057;0.2193;0.3832;0.442
0.055000;0.0415;0.1864;0.5782;0.609
0.060000;0.0489;0.1801;0.7203;0.744
0.065000;0.0306;0.1660;0.7959;0.814
0.070000;-0.0093;0.1987;0.8411;0.864
0.075000;-0.0521;0.2587;0.7942;0.837
0.080000;-0.1050;0.2339;0.6724;0.720
0.084000;-0.1274;0.2368;0.5379;0.601
0.089000;-0.1547;0.1868;0.3598;0.434
0.094000;-0.1890;0.1469;0.1451;0.280
0.099000;-0.2296;0.1270;-0.0370;0.265
0.104000;-0.2780;0.0994;-0.2608;0.394
0.115000;-0.3431;0.1172;-0.4286;0.561
0.116000;-0.3381;0.0548;-0.5410;0.640
0.118000;-0.3653;0.0368;-0.6079;0.710
0.125000;-0.3621;0.0681;-0.6487;0.746
0.129000;-0.3452;0.0415;-0.6184;0.709
0.133000;-0.3242;0.0333;-0.5982;0.681
0.138000;-0.2756;0.0412;-0.5214;0.591
0.146000;-0.2619;0.0313;-0.4217;0.497
0.148000;-0.2428;0.0297;-0.3156;0.399
0.153000;-0.2191;0.0383;-0.2007;0.300
0.159000;-0.2171;0.0591;-0.0937;0.244
0.163000;-0.1920;0.0419;0.0032;0.197
0.168000;-0.1823;0.0387;0.0973;0.210
0.172000;-0.1519;0.0183;0.1339;0.203
0.177000;-0.1273;0.0021;0.1539;0.200
0.182000;-0.1514;-0.0195;0.1835;0.239
0.187000;-0.1597;-0.0419;0.2060;0.264
0.193000;-0.1998;-0.0670;0.2071;0.295
0.197000;-0.2525;-0.0521;0.2084;0.332
0.202000;-0.2651;-0.0971;0.2074;0.350
0.207000;-0.2922;-0.1186;0.1969;0.372
0.216000;-0.3167;-0.1403;0.1604;0.382
0.217000;-0.3360;-0.1550;0.1313;0.393
0.221000;-0.3259;-0.1768;0.0834;0.380
0.226000;-0.3008;-0.1293;0.0356;0.329
0.232000;-0.2919;-0.1366;-0.0191;0.323
0.236000;-0.2516;-0.1386;-0.0713;0.296
0.241000;-0.2256;-0.1068;-0.0686;0.259
0.246000;-0.1873;-0.0913;-0.0566;0.216
0.252000;-0.1395;-0.0897;-0.0709;0.180
0.256000;-0.1229;-0.0330;-0.0471;0.136
0.262000;-0.0850;-0.0145;0.0170;0.088
0.266000;-0.0382;-0.0008;0.0379;0.054
0.271000;-0.0062;-0.0255;0.0587;0.064
0.278000;-0.0056;-0.0192;0.0819;0.084
0.280000;0.0382;-0.0154;0.1002;0.108
0.285000;0.0772;0.0116;0.1329;0.154
0.290000;0.0464;0.0287;0.1346;0.145
0.295000;-0.0018;0.0263;0.1387;0.141
0.300000;-0.0313;0.0354;0.1048;0.115
0.305000;-0.0539;0.0438;0.0879;0.112
0.310000;-0.0624;0.0302;0.0474;0.084
0.314000;-0.0089;-0.0075;0.0096;0.015
0.319000;0.0062;-0.0168;-0.0423;0.046
0.326000;0.0310;0.0073;-0.1011;0.106
0.330000;0.0513;0.0002;-0.1191;0.130
0.334000;0.0645;0.0053;-0.1538;0.167
0.338000;0.0682;0.0299;-0.1646;0.181
0.344000;0.0745;0.0285;-0.2112;0.226
0.349000;0.0834;0.0370;-0.2196;0.238
0.354000;0.1069;0.0508;-0.2281;0.257
0.358000;0.0950;0.0438;-0.2224;0.246
0.364000;0.0764;0.0325;-0.1717;0.191
0.369000;0.0772;0.0406;-0.1545;0.177
0.373000;0.0758;0.0657;-0.1280;0.163
0.378000;0.0908;0.0547;-0.1297;0.168
0.383000;0.0628;0.0462;-0.0816;0.113
0.388000;0.0563;0.0188;-0.0837;0.103
0.400000;0.0684;0.0202;-0.0834;0.110
0.400000;0.0589;0.0047;-0.0925;0.110
0.403000;0.0446;-0.0035;-0.0850;0.096
0.410000;0.0231;-0.0141;-0.1131;0.116
0.413000;0.0230;-0.0270;-0.1338;0.138
0.418000;0.0062;-0.0491;-0.1354;0.144
0.422000;0.0060;-0.0307;-0.1252;0.129
0.429000;0.0013;-0.0358;-0.1484;0.153
0.433000;0.0228;-0.0786;-0.1263;0.150
0.437000;0.0467;-0.0686;-0.1164;0.143
0.443000;0.0373;-0.0586;-0.0520;0.087
0.447000;0.0234;-0.0747;-0.0427;0.089
0.452000;0.0025;-0.0573;-0.0216;0.061
0.457000;0.0435;-0.0521;0.0064;0.068
0.468000;0.0439;-0.0708;0.0271;0.088
0.468000;0.0679;-0.0538;0.0785;0.117
0.471000;0.0677;-0.0514;0.0845;0.120
0.476000;0.0554;-0.0564;0.0857;0.117
0.483000;0.0406;-0.0617;0.0704;0.102
0.486000;0.0282;-0.0365;0.0695;0.083
0.491000;0.0274;-0.0590;0.0544;0.085
0.496000;0.0170;-0.0411;0.0941;0.104
0.502000;0.0088;-0.0544;0.0932;0.108
0.506000;0.0197;-0.0654;0.1255;0.143
0.515000;0.0356;-0.0623;0.1434;0.160
0.516000;0.0611;-0.0881;0.1304;0.169
0.520000;0.0391;-0.0739;0.0939;0.126
0.526000;0.0458;-0.0552;0.0601;0.094
0.530000;0.0358;-0.0559;0.0291;0.072
0.537000;0.0517;-0.0403;0.0197;0.068
0.540000;0.0604;-0.0392;-0.0464;0.086
0.545000;0.0666;-0.0381;-0.0907;0.119
0.550000;0.0633;-0.0440;-0.1370;0.157
0.555000;0.0719;-0.0355;-0.1569;0.176
0.561000;0.0759;-0.0147;-0.2052;0.219
0.566000;0.0657;-0.0103;-0.2176;0.228
0.569000;0.0842;-0.0104;-0.2276;0.243
0.574000;0.0908;-0.0005;-0.1973;0.217
0.579000;0.1095;0.0123;-0.1841;0.215
0.584000;0.1142;-0.0055;-0.1496;0.188
0.589000;0.1168;-0.0181;-0.0989;0.154
0.594000;0.1101;-0.0090;-0.0654;0.128
0.599000;0.1060;-0.0141;-0.0392;0.114
0.603000;0.1065;0.0212;-0.0204;0.111
0.608000;0.1380;0.0349;0.0291;0.145
0.621000;0.1383;0.0009;0.0829;0.161
0.621000;0.1267;0.0217;-0.0582;0.141
0.623000;0.0841;0.0257;-0.0535;0.103
0.628000;0.1063;0.0201;-0.0464;0.118
0.633000;0.1285;0.0621;-0.0678;0.158
0.637000;0.0814;0.0729;-0.1033;0.150
0.642000;0.0723;0.0483;-0.1125;0.142
0.647000;0.0822;0.0668;-0.1050;0.149
0.652000;0.0683;0.0523;-0.0858;0.122
0.657000;0.0548;0.0357;-0.0692;0.095
0.662000;0.0652;0.0121;-0.0386;0.077
0.667000;0.0376;0.0173;-0.0247;0.048
0.671000;0.0128;0.0510;-0.0063;0.053
0.681000;-0.0142;0.0607;0.0191;0.065
0.681000;-0.0315;0.0512;0.0751;0.096
0.687000;-0.0392;0.0773;0.1070;0.138
0.692000;-0.0324;0.0983;0.1125;0.153
0.699000;-0.0327;0.0999;0.1252;0.163
0.701000;-0.0283;0.0632;0.1023;0.124
0.706000;-0.0262;0.0409;0.0891;0.101
0.711000;-0.0097;0.0328;0.0998;0.106
0.715000;-0.0316;0.0794;0.0819;0.118
0.720000;-0.0443;0.0781;0.0927;0.129
0.726000;-0.0384;0.0980;0.0986;0.144
0.731000;-0.0619;0.0701;0.1567;0.183
0.735000;-0.0481;0.0825;0.1575;0.184
0.740000;-0.0065;0.0899;0.1654;0.188
0.745000;-0.0085;0.0709;0.1638;0.179
0.750000;0.0156;0.0828;0.1480;0.170
0.755000;0.0185;0.0873;0.1466;0.172
0.761000;0.0314;0.1059;0.1240;0.166
0.766000;0.0257;0.1195;0.1252;0.175
0.770000;0.0181;0.1591;0.2285;0.279
0.774000;0.0372;0.0887;0.2172;0.238
0.779000;-0.0507;0.1041;0.1562;0.194
0.784000;-0.1145;0.1619;0.1005;0.222
0.789000;-0.0873;0.1242;0.1259;0.197
0.794000;-0.0289;0.0889;0.1987;0.220
0.799000;-0.0278;0.0698;0.1287;0.149
0.804000;-0.0793;0.1144;0.0500;0.148
0.810000;-0.0738;0.1372;-0.0210;0.157
0.814000;-0.0566;0.1575;-0.0108;0.168
0.819000;-0.0062;0.1466;0.0066;0.147
0.823000;-0.0226;0.1570;-0.0521;0.167
0.829000;-0.0102;0.1268;-0.0913;0.157
0.833000;-0.0145;0.1396;-0.0874;0.165
0.840000;-0.0215;0.1642;-0.1548;0.227
0.844000;0.0189;0.1722;-0.1955;0.261
0.848000;0.0421;0.1446;-0.2336;0.278
0.853000;0.0765;0.1437;-0.2098;0.266
0.858000;0.0672;0.1412;-0.1863;0.243
0.863000;0.0337;0.1274;-0.1917;0.233
0.868000;-0.0022;0.1452;-0.1118;0.183
0.873000;-0.0140;0.1300;-0.0398;0.137
0.878000;-0.0068;0.1154;0.0481;0.125
0.883000;-0.0236;0.0772;0.0997;0.128
0.888000;-0.0496;0.0823;0.1341;0.165
0.894000;-0.0608;0.0308;0.2062;0.217
0.897000;-0.0879;0.0034;0.2871;0.300
0.902000;-0.1112;0.0046;0.3390;0.357
0.907000;-0.0905;-0.0397;0.3976;0.410
0.912000;-0.1116;-0.0557;0.4180;0.436
0.917000;-0.1317;-0.0914;0.4337;0.462
0.922000;-0.1156;-0.1039;0.4186;0.447
0.929000;-0.1086;-0.0864;0.3755;0.400
0.931000;-0.1183;-0.1009;0.3259;0.361
0.936000;-0.0944;-0.1282;0.2864;0.328
0.941000;-0.0639;-0.1368;0.1976;0.249
0.951000;-0.0887;-0.1128;0.0290;0.146
0.951000;-0.1068;-0.1012;-0.0479;0.155
0.957000;-0.0943;-0.0613;-0.1739;0.207
0.962000;-0.0944;-0.0002;-0.2326;0.251
0.965000;-0.0927;0.0420;-0.3051;0.322
0.970000;-0.0796;0.0655;-0.3607;0.375
0.979000;-0.0172;0.0660;-0.3851;0.391
0.981000;0.0160;0.0724;-0.3928;0.400
0.986000;0.0396;0.0395;-0.3817;0.386
0.991000;0.0584;0.0316;-0.3757;0.382
0.996000;0.0941;0.0080;-0.2889;0.304
1.000000;0.1014;-0.0004;-0.2025;0.226
1.005000;0.0972;-0.0154;-0.1165;0.152
1.013000;0.1051;-0.0134;-0.0451;0.115
1.017000;0.0965;-0.0136;0.0046;0.098
1.022000;0.1049;0.0005;0.0684;0.125
1.036000;0.0848;-0.0098;0.1203;0.148
1.038000;0.0289;-0.0490;0.1650;0.175
1.038000;-0.0320;-0.0241;0.1620;0.167
1.039000;-0.0376;-0.0595;0.1829;0.196
1.048000;0.0049;-0.0789;0.1540;0.173
1.050000;-0.0002;-0.0607;0.1086;0.124
1.063000;0.0067;-0.0694;-0.0034;0.070
1.065000;0.0088;-0.0691;-0.0958;0.118
1.066000;0.0348;-0.0306;-0.1498;0.157
1.069000;0.1060;-0.0041;-0.2227;0.247
1.074000;0.1384;-0.0179;-0.2335;0.272
1.082000;0.1534;-0.0194;-0.2921;0.331
1.083000;0.1990;0.0157;-0.2911;0.353
1.089000;0.2442;0.0108;-0.2641;0.360
1.095000;0.2603;-0.0005;-0.2087;0.334
1.100000;0.2859;-0.0013;-0.1417;0.319
1.102000;0.3020;0.0006;-0.0608;0.308
1.107000;0.2754;-0.0280;0.0294;0.278
1.112000;0.2728;-0.0419;0.1146;0.299
1.117000;0.2492;-0.0654;0.1493;0.298
1.122000;0.2236;-0.0843;0.2032;0.314
1.130000;0.1534;-0.0892;0.2404;0.299
1.136000;0.1245;-0.0968;0.2441;0.291
1.138000;0.1058;-0.0954;0.1932;0.240
1.142000;0.1091;-0.1424;0.1496;0.234
1.153000;0.0602;-0.1637;0.0897;0.196
1.154000;0.0834;-0.1539;0.0180;0.176
1.162000;0.0924;-0.1207;-0.0414;0.158
1.163000;0.0893;-0.1425;-0.0721;0.183
1.166000;0.0817;-0.1310;-0.1432;0.211
1.171000;0.0814;-0.1241;-0.1688;0.225
1.176000;0.1116;-0.0999;-0.2193;0.266
1.181000;0.1226;-0.0924;-0.2719;0.312
1.186000;0.1145;-0.0942;-0.3643;0.393
1.191000;0.1278;-0.0885;-0.3968;0.426
1.196000;0.1172;-0.0541;-0.4433;0.462
1.200000;0.1000;-0.0291;-0.4496;0.461
1.206000;0.0802;-0.0131;-0.4440;0.451
1.212000;0.0862;-0.0061;-0.3909;0.400
1.215000;0.0964;0.0012;-0.3333;0.347
1.221000;0.1061;-0.0032;-0.2878;0.307
1.225000;0.1321;0.0116;-0.2329;0.268
1.234000;0.1547;-0.0118;-0.2364;0.283
1.235000;0.1558;-0.0279;-0.1971;0.253
1.240000;0.1192;-0.0581;-0.1795;0.223
1.246000;0.0832;-0.0598;-0.1738;0.202
1.250000;0.0547;-0.0641;-0.1611;0.182
1.255000;-0.0022;-0.0731;-0.1840;0.198
1.259000;-0.0400;-0.1083;-0.2186;0.247
1.266000;-0.1023;-0.0986;-0.2234;0.265
1.270000;-0.1577;-0.0984;-0.2903;0.345
1.281000;-0.1941;-0.1457;-0.2138;0.323
1.283000;-0.2307;-0.0585;-0.3622;0.433
1.284000;-0.2126;-0.0549;-0.1951;0.294
1.290000;-0.1877;-0.0869;-0.1311;0.245
1.295000;-0.1772;-0.0423;-0.1199;0.218
1.300000;-0.1504;-0.0264;0.0154;0.153
1.304000;-0.1190;-0.0177;0.0406;0.127
1.309000;-0.0950;-0.0332;0.0921;0.136
1.316000;-0.0516;-0.0133;0.1174;0.129
1.318000;-0.0559;0.0037;0.1785;0.187
1.324000;-0.0816;-0.0037;0.1871;0.204
1.330000;-0.0979;-0.0047;0.1719;0.198
1.334000;-0.1023;0.0201;0.1260;0.164
1.338000;-0.1380;0.0276;0.0635;0.154
1.343000;-0.1405;0.0349;-0.0107;0.145
1.348000;-0.1407;0.0349;-0.0872;0.169
1.353000;-0.1097;0.0472;-0.1682;0.206
1.358000;-0.0906;0.0413;-0.1587;0.187
1.363000;-0.0593;0.0575;-0.1827;0.200
1.368000;-0.0348;0.0769;-0.1854;0.204
1.372000;0.0020;0.0853;-0.1000;0.131
1.378000;0.0149;0.0800;0.0016;0.081
1.383000;-0.0006;0.0635;0.1141;0.131
1.387000;-0.0254;0.0265;0.1946;0.198
1.392000;-0.0903;0.0160;0.3219;0.335
1.401000;-0.1509;-0.0277;0.3912;0.420
1.402000;-0.2165;-0.0382;0.4795;0.527
1.407000;-0.2631;-0.0636;0.4770;0.548
1.414000;-0.3027;-0.0514;0.5177;0.602
1.416000;-0.2943;-0.0618;0.5180;0.599
1.421000;-0.3336;-0.0347;0.4635;0.572
1.426000;-0.3589;-0.0321;0.4285;0.560
1.438000;-0.3461;-0.0013;0.3458;0.489
1.439000;-0.3286;-0.0115;0.2801;0.432
1.440000;-0.3014;-0.0027;0.2147;0.370
1.448000;-0.2907;0.0394;0.1685;0.338
1.453000;-0.2943;0.0649;0.1295;0.328
1.461000;-0.2524;0.0879;0.0930;0.283
1.462000;-0.2561;0.0797;0.0637;0.276
1.466000;-0.2454;0.1028;0.0417;0.269
1.473000;-0.2303;0.1330;0.0436;0.269
1.475000;-0.2058;0.1345;0.0382;0.249
1.481000;-0.1866;0.1430;0.0163;0.236
1.484000;-0.2156;0.1465;-0.0176;0.261
1.490000;-0.2140;0.1691;-0.0538;0.278
1.497000;-0.2293;0.1796;-0.0803;0.302
1.499000;-0.2114;0.2186;-0.0781;0.314
1.504000;-0.1915;0.2290;-0.0449;0.302
1.509000;-0.1386;0.2393;-0.0572;0.282
1.517000;-0.1005;0.2327;-0.0144;0.254
1.519000;-0.0389;0.1924;0.0164;0.197
1.524000;0.0032;0.2021;0.0232;0.203
1.530000;0.0546;0.1877;0.0278;0.197
1.534000;0.0577;0.1648;0.0393;0.179
1.538000;0.0533;0.1606;0.0603;0.180
1.543000;0.0824;0.1787;0.1008;0.221
1.549000;0.1114;0.1774;0.0888;0.228
1.554000;0.1521;0.1329;0.1078;0.229
1.558000;0.1857;0.1338;0.0911;0.246
1.563000;0.2030;0.1323;0.1102;0.266
1.568000;0.2090;0.1284;0.1174;0.272
1.573000;0.2038;0.1033;0.1722;0.286
1.579000;0.1948;0.0736;0.1816;0.276
1.582000;0.1418;0.0297;0.1790;0.230
1.588000;0.0877;-0.0046;0.2027;0.221
1.593000;0.0299;-0.0318;0.2408;0.245
1.598000;-0.0340;-0.0759;0.2336;0.248
1.602000;-0.0997;-0.1084;0.2455;0.286
1.607000;-0.1818;-0.1223;0.2624;0.342
1.615000;-0.2021;-0.1152;0.2579;0.347
1.621000;-0.2349;-0.1037;0.1842;0.316
1.621000;-0.2373;-0.1027;0.1610;0.305
1.627000;-0.1833;-0.0781;0.1713;0.263
1.639000;-0.1237;-0.0945;0.1268;0.201
1.639000;-0.0892;-0.0684;0.1063;0.155
1.645000;-0.0294;-0.1069;0.0524;0.123
1.647000;0.0032;-0.0832;0.0225;0.086
1.652000;0.0495;-0.0786;-0.0336;0.099
1.656000;0.0711;-0.0763;-0.0802;0.132
1.661000;0.0735;-0.0830;-0.0957;0.146
1.666000;0.0639;-0.0725;-0.0755;0.123
1.671000;0.0736;-0.0807;-0.1152;0.159
1.676000;0.0616;-0.1164;-0.1158;0.175
1.681000;0.0428;-0.1444;-0.0881;0.175
1.686000;-0.0042;-0.1838;-0.0156;0.184
1.691000;-0.0223;-0.1799;0.0183;0.182
1.696000;-0.0520;-0.2238;0.0353;0.232
1.701000;-0.0764;-0.2155;0.0428;0.233
1.706000;-0.0938;-0.2266;0.0813;0.258
1.710000;-0.0712;-0.2096;0.0933;0.240
1.715000;-0.0757;-0.2053;0.0557;0.226
1.720000;-0.0951;-0.1897;0.0588;0.220
1.725000;-0.0703;-0.1651;0.0667;0.191
1.732000;-0.0229;-0.1527;0.0627;0.167
1.736000;-0.0030;-0.1336;0.0256;0.136
1.739000;0.0373;-0.1028;0.0552;0.122
1.760000;0.0860;-0.1194;0.0181;0.148
1.761000;0.1012;-0.1643;0.0216;0.194
1.762000;0.1191;-0.1851;-0.0390;0.223
1.763000;0.1044;-0.1913;-0.0801;0.232
1.764000;0.0787;-0.1545;-0.1304;0.217
1.770000;0.0614;-0.1482;-0.1661;0.231
1.776000;0.0568;-0.0966;-0.1756;0.208
1.779000;0.1125;-0.1019;-0.2491;0.292
1.784000;0.1663;-0.0736;-0.3079;0.358
1.788000;0.2016;-0.0757;-0.3426;0.405
1.793000;0.2294;-0.0514;-0.3629;0.432
1.800000;0.2438;-0.0288;-0.3260;0.408
1.803000;0.2329;-0.0031;-0.2847;0.368
1.808000;0.2586;0.0374;-0.2100;0.335
1.815000;0.2610;0.0301;-0.1404;0.298
1.818000;0.1967;0.0466;-0.0923;0.222
1.823000;0.1687;0.0270;-0.0896;0.193
1.828000;0.1195;-0.0029;-0.0963;0.153
1.838000;0.0847;-0.0574;-0.1123;0.152
1.839000;0.0309;-0.0384;-0.1758;0.183
1.843000;-0.0013;-0.0487;-0.2702;0.275
1.848000;-0.0720;-0.0380;-0.3403;0.350
1.852000;-0.1024;-0.0086;-0.4126;0.425
1.857000;-0.1022;-0.0010;-0.4704;0.481
1.862000;-0.0906;0.0255;-0.5900;0.598
1.867000;-0.0413;0.0569;-0.6356;0.639
1.872000;0.0146;0.0770;-0.6931;0.698
1.876000;0.0725;0.0714;-0.7651;0.772
1.881000;0.1424;0.0787;-0.8037;0.820
1.887000;0.2030;0.0728;-0.8091;0.837
1.891000;0.2378;0.0610;-0.8101;0.846
1.897000;0.2372;0.0576;-0.7684;0.806
1.901000;0.2205;0.0532;-0.7272;0.762
1.906000;0.1806;0.0262;-0.6769;0.701
1.911000;0.1678;0.0028;-0.6126;0.635
1.916000;0.1175;0.0116;-0.4627;0.478
1.921000;0.0394;0.0139;-0.3372;0.340
1.925000;-0.0548;-0.0190;-0.1643;0.174
1.932000;-0.1176;-0.0566;-0.0251;0.133
1.939000;-0.2257;-0.0799;0.0780;0.252
1.940000;-0.2935;-0.0654;0.0521;0.305
1.960000;-0.3809;-0.1067;0.3991;0.562
1.960000;-0.4404;-0.1464;0.4041;0.615
1.961000;-0.4739;-0.1445;0.3546;0.609
1.961000;-0.4652;-0.1986;0.4248;0.661
1.970000;-0.4193;-0.2202;0.3949;0.617
1.971000;-0.3867;-0.2167;0.3534;0.567
1.976000;-0.3338;-0.2045;0.3121;0.501
1.980000;-0.2845;-0.1761;0.2615;0.425
1.985000;-0.2193;-0.1719;0.1992;0.343
1.990000;-0.1381;-0.1580;0.1942;0.286
1.995000;-0.1005;-0.1344;0.2106;0.269
2.001000;-0.0701;-0.1387;0.2054;0.258
2.005000;-0.1063;-0.1232;0.2453;0.294
2.009000;-0.1559;-0.0997;0.3327;0.381
2.016000;-0.1781;-0.0850;0.3864;0.434
2.018000;-0.2372;-0.0866;0.4733;0.536
2.023000;-0.2949;-0.0876;0.5360;0.618
2.040000;-0.3438;-0.0790;0.5795;0.678
2.041000;-0.3935;-0.0872;0.6038;0.726
2.041000;-0.3769;-0.0597;0.6377;0.743
2.044000;-0.3779;-0.0543;0.6311;0.738
2.051000;-0.3589;-0.0398;0.6247;0.722
2.053000;-0.3271;-0.0454;0.5731;0.661
2.058000;-0.2900;-0.0255;0.4861;0.567
2.065000;-0.2549;-0.0326;0.4901;0.553
2.068000;-0.2009;-0.0287;0.3869;0.437
2.073000;-0.1571;0.0051;0.3248;0.361
2.078000;-0.1214;0.0571;0.2965;0.325
2.084000;-0.0557;0.1106;0.2182;0.251
2.088000;-0.0033;0.1131;0.1522;0.190
2.092000;0.0553;0.1461;0.0984;0.185
2.099000;0.0938;0.1668;0.0447;0.196
2.102000;0.0958;0.2037;-0.0230;0.226
2.107000;0.1095;0.1999;-0.0597;0.236
2.112000;0.1135;0.2057;-0.1320;0.270
2.117000;0.1150;0.2236;-0.1828;0.311
2.122000;0.1095;0.2536;-0.2169;0.351
2.127000;0.0919;0.2600;-0.2533;0.374
2.133000;0.0742;0.2383;-0.2708;0.368
2.136000;0.0855;0.2198;-0.3218;0.399
2.141000;0.1141;0.1779;-0.3012;0.368
2.167000;0.1150;0.1585;-0.3263;0.380
2.168000;0.1457;0.1469;-0.3467;0.404
2.168000;0.1658;0.1437;-0.3601;0.422
2.168000;0.1730;0.1369;-0.3476;0.412
2.169000;0.2367;0.1599;-0.3162;0.426
2.170000;0.2591;0.1336;-0.3305;0.441
2.176000;0.2716;0.1372;-0.2948;0.424
2.181000;0.3073;0.1300;-0.2882;0.441
2.186000;0.3610;0.1358;-0.2005;0.435
2.191000;0.4130;0.1686;-0.0868;0.454
2.195000;0.4821;0.1878;-0.0379;0.519
2.201000;0.5369;0.1763;0.0203;0.565
2.205000;0.5727;0.1769;0.1334;0.614
2.210000;0.6394;0.1817;0.2250;0.702
2.216000;0.7487;0.2030;0.3667;0.858
2.220000;0.8242;0.1949;0.4797;0.973
2.226000;0.8858;0.1763;0.6191;1.095
2.243000;0.9456;0.1638;0.8256;1.266
2.244000;0.9590;0.1499;1.0131;1.403
2.244000;0.9882;0.0816;1.1817;1.543
2.245000;0.9312;0.0280;1.2767;1.581
2.252000;0.8031;-0.0257;1.3032;1.531
2.254000;0.6784;-0.0488;1.3139;1.480
2.259000;0.5088;-0.0696;1.2945;1.393
2.265000;0.3485;-0.0361;1.2093;1.259
2.269000;0.1888;-0.0171;1.0653;1.082
2.274000;0.0793;-0.0295;0.9128;0.917
2.279000;0.0376;-0.0225;0.7110;0.712
2.283000;0.0130;0.0020;0.4814;0.482
2.288000;0.0623;0.0398;0.3000;0.309
2.292000;0.1211;0.0577;0.1645;0.212
2.301000;0.1869;0.0350;0.0937;0.212
2.303000;0.2551;0.0215;0.0230;0.257
2.308000;0.3185;0.0252;-0.0264;0.321
2.313000;0.3083;0.0530;-0.0877;0.325
2.318000;0.2821;0.0646;-0.1802;0.341
2.322000;0.3028;0.0527;-0.2131;0.374
2.327000;0.2528;-0.0183;-0.2986;0.392
2.342000;0.1468;-0.0363;-0.3411;0.373
2.343000;-0.0064;-0.0197;-0.4008;0.401
2.343000;-0.1014;-0.0285;-0.4703;0.482
2.347000;-0.1958;-0.0171;-0.5091;0.546
2.352000;-0.3012;-0.0524;-0.5650;0.642
2.357000;-0.3198;-0.0864;-0.6095;0.694
2.362000;-0.3805;-0.1213;-0.6783;0.787
2.368000;-0.3945;-0.1140;-0.7357;0.842
2.372000;-0.4447;-0.1221;-0.7337;0.867
2.377000;-0.4470;-0.1381;-0.7560;0.889
2.382000;-0.4032;-0.1286;-0.7549;0.865
2.387000;-0.3537;-0.1053;-0.7686;0.853
2.391000;-0.2988;-0.0469;-0.7875;0.844
2.397000;-0.2817;0.0013;-0.7854;0.834
2.402000;-0.2526;0.0153;-0.7839;0.824
2.406000;-0.2841;0.0234;-0.7852;0.835
2.411000;-0.2854;0.0617;-0.7704;0.824
2.418000;-0.2357;0.1108;-0.7108;0.757
2.422000;-0.1685;0.1155;-0.6469;0.678
2.426000;-0.0841;0.1303;-0.5477;0.569
2.443000;-0.0492;0.0832;-0.4585;0.469
2.444000;0.0012;0.0507;-0.3433;0.347
2.444000;0.0218;0.0061;-0.2354;0.237
2.447000;0.0632;-0.0077;-0.1731;0.184
2.453000;0.0539;-0.0124;-0.1298;0.141
2.458000;0.0372;-0.0012;-0.0625;0.073
2.460000;0.0180;-0.0051;-0.0476;0.051
2.465000;-0.0085;-0.0120;-0.0183;0.023
2.470000;-0.0164;-0.0101;0.0041;0.020
2.475000;-0.0489;0.0031;-0.0092;0.050
2.479000;-0.0533;0.0132;-0.0367;0.066
2.484000;-0.0585;0.0323;-0.1047;0.124
2.489000;-0.0501;0.0132;-0.1630;0.171
2.494000;-0.0739;0.0608;-0.2190;0.239
2.499000;-0.1247;0.1038;-0.2964;0.338
2.504000;-0.2004;0.1135;-0.3882;0.451
2.509000;-0.2486;0.0855;-0.4443;0.516
2.517000;-0.2390;0.0606;-0.3763;0.450
2.523000;-0.1816;0.0292;-0.3710;0.414
2.523000;-0.0526;-0.1161;-0.3086;0.334
2.529000;-0.1834;-0.0863;-0.1797;0.271
2.546000;-0.1834;0.0514;-0.2947;0.351
2.547000;-0.0504;0.1270;-0.2040;0.245
2.548000;-0.0931;0.1287;0.0253;0.161
2.549000;-0.1810;0.0780;0.1705;0.261
2.553000;-0.1903;0.0345;0.1532;0.247
2.558000;-0.1681;-0.0095;0.1887;0.253
2.563000;-0.1021;-0.0492;0.2483;0.273
2.567000;-0.0616;-0.0562;0.2890;0.301
2.573000;-0.0976;-0.0546;0.2895;0.310
2.578000;-0.1384;-0.0254;0.2616;0.297
2.582000;-0.1774;0.0050;0.2270;0.288
2.587000;-0.2054;0.0318;0.1019;0.232
2.592000;-0.2329;0.0605;0.0131;0.241
2.596000;-0.2552;0.0695;-0.1042;0.284
2.602000;-0.2464;0.0974;-0.2427;0.359
2.607000;-0.2376;0.1304;-0.1302;0.301
2.612000;-0.2766;0.0805;-0.4601;0.543
2.617000;-0.3095;0.0912;-0.6152;0.695
2.622000;-0.2952;0.0863;-0.5888;0.664
2.627000;-0.2919;0.0687;-0.6726;0.736
2.634000;-0.2466;0.0696;-0.6397;0.689
2.637000;-0.1847;0.0795;-0.5642;0.599
2.641000;-0.0516;0.1366;-0.4415;0.465
2.646000;0.0579;0.1188;-0.2882;0.317
2.663000;0.1894;0.1001;-0.1260;0.249
2.664000;0.3461;0.0869;0.0096;0.357
2.664000;0.4039;0.0454;0.1114;0.421
2.667000;0.4540;0.0587;0.1534;0.483
2.671000;0.4192;0.0670;0.1835;0.462
2.680000;0.3468;0.1202;0.1611;0.401
2.681000;0.2338;0.1489;0.1604;0.320
2.685000;0.1678;0.1915;0.1575;0.299
2.691000;0.0597;0.2240;0.1212;0.262
2.695000;-0.0173;0.2178;0.0875;0.235
2.701000;-0.0586;0.2042;0.0731;0.225
2.705000;-0.1244;0.2046;0.0564;0.246
2.710000;-0.1434;0.2359;0.0565;0.282
2.718000;-0.1660;0.2359;0.0686;0.297
2.720000;-0.1637;0.2574;0.0712;0.313
2.723000;-0.1744;0.2642;0.0739;0.325
2.729000;-0.1716;0.2541;0.0957;0.321
2.747000;-0.1426;0.2129;0.0555;0.262
2.748000;-0.1017;0.1907;0.0392;0.220
2.749000;-0.0748;0.1350;0.0660;0.168
2.749000;-0.0666;0.1320;0.0402;0.153
2.754000;-0.0770;0.1244;0.0263;0.149
2.759000;-0.0846;0.1530;0.0339;0.178
2.764000;-0.0867;0.1576;0.0534;0.188
2.769000;-0.1020;0.1361;0.0681;0.183
2.773000;-0.0677;0.1124;0.1137;0.174
2.778000;-0.0465;0.0958;0.1306;0.168
2.783000;-0.0241;0.1055;0.1809;0.211
2.788000;-0.0372;0.0765;0.1978;0.215
2.793000;-0.0356;0.1094;0.2291;0.256
2.797000;-0.0390;0.0842;0.1984;0.219
2.805000;-0.0640;0.1064;0.2564;0.285
2.808000;-0.0844;0.1017;0.2307;0.266
2.813000;-0.0934;0.1062;0.2005;0.245
2.820000;-0.1004;0.1365;0.2039;0.265
2.824000;-0.1365;0.1546;0.2336;0.312
2.827000;-0.1226;0.1390;0.2442;0.307
2.850000;-0.1304;0.1233;0.3003;0.350
2.851000;-0.1192;0.0882;0.3539;0.384
2.851000;-0.1488;0.0670;0.4124;0.444
2.851000;-0.1376;0.0428;0.5475;0.566
2.852000;-0.1190;0.0323;0.6014;0.614
2.857000;-0.1311;0.0015;0.6674;0.680
2.862000;-0.1404;-0.0164;0.6883;0.703
2.866000;-0.1971;-0.0263;0.6833;0.712
2.871000;-0.2106;-0.0448;0.7074;0.739
2.878000;-0.2099;-0.0742;0.6769;0.713
2.881000;-0.2859;-0.0786;0.5895;0.660
2.885000;-0.3239;-0.0960;0.4690;0.578
2.891000;-0.3283;-0.1358;0.3704;0.513
2.896000;-0.3803;-0.1544;0.2506;0.481
2.901000;-0.4102;-0.1181;0.1142;0.442
2.906000;-0.3724;-0.1053;0.0687;0.393
2.911000;-0.3336;-0.0660;-0.0079;0.340
2.919000;-0.3156;-0.0811;-0.1085;0.343
2.921000;-0.3071;-0.0355;-0.2020;0.369
2.925000;-0.2724;-0.0103;-0.2168;0.348
2.930000;-0.2400;-0.0057;-0.2080;0.318
2.955000;-0.1957;-0.0096;-0.1732;0.262
2.956000;-0.1753;0.0232;-0.0981;0.202
2.956000;-0.1743;0.0231;-0.0758;0.191
2.956000;-0.1614;0.0136;-0.0297;0.165
2.957000;-0.1509;0.0260;0.0258;0.155
2.960000;-0.1525;0.0097;0.0765;0.171
2.964000;-0.1377;0.0220;0.0674;0.155
2.970000;-0.1375;0.0339;0.0751;0.160
2.977000;-0.0971;-0.0095;0.0781;0.125
2.978000;-0.1121;0.0041;0.0407;0.119
2.985000;-0.0797;0.0341;0.0129;0.088
2.989000;-0.0742;0.0232;-0.0243;0.081
2.994000;-0.0378;0.0385;-0.0853;0.101
3.000000;-0.0085;0.0418;-0.1773;0.182
3.004000;-0.0149;0.0453;-0.2310;0.236
3.009000;-0.0066;0.0826;-0.2800;0.292
3.013000;-0.0196;0.0652;-0.3218;0.329
3.019000;-0.0231;0.0912;-0.3087;0.323
3.023000;-0.0075;0.1059;-0.2815;0.301
3.029000;0.0004;0.1281;-0.2472;0.278
3.035000;0.0318;0.1172;-0.2514;0.279
3.038000;0.0847;0.1042;-0.2245;0.262
3.042000;0.0850;0.0866;-0.1953;0.230
3.047000;0.1021;0.0907;-0.1782;0.225
3.067000;0.0856;0.0756;-0.1324;0.175
3.068000;0.0521;0.0724;-0.1248;0.153
3.068000;0.0328;0.0881;-0.1220;0.154
3.069000;0.0348;0.0727;-0.1240;0.148
3.072000;0.0056;0.0428;-0.1283;0.135
3.077000;-0.0405;-0.0231;-0.1684;0.175
3.083000;-0.0676;-0.0005;-0.1606;0.174
3.087000;-0.1114;-0.0161;-0.1815;0.214
3.092000;-0.1527;-0.0198;-0.1952;0.249
3.096000;-0.1436;-0.0162;-0.2089;0.254
3.101000;-0.1486;-0.0483;-0.2633;0.306
3.107000;-0.1342;-0.0418;-0.2891;0.321
3.111000;-0.1293;-0.0421;-0.2791;0.310
3.116000;-0.1386;-0.0489;-0.2573;0.296
3.121000;-0.1359;-0.0482;-0.1998;0.246
3.126000;-0.1416;-0.0492;-0.1581;0.218
3.131000;-0.1167;-0.0762;-0.0978;0.170
3.136000;-0.1300;-0.0744;-0.0546;0.159
3.141000;-0.1339;-0.0655;-0.0046;0.149
3.146000;-0.1283;-0.0571;0.0118;0.141
3.170000;-0.1204;-0.0681;0.0163;0.139
3.171000;-0.1294;-0.0461;0.0471;0.145
3.171000;-0.1293;-0.0367;0.0681;0.151
3.172000;-0.0679;-0.0063;0.0394;0.079
3.172000;-0.0381;-0.0503;0.0275;0.069
3.175000;-0.0157;-0.0348;0.0064;0.039
3.180000;-0.0294;-0.0293;-0.0239;0.048
3.185000;-0.0170;-0.0096;-0.0469;0.051
3.190000;-0.0097;0.0053;-0.1100;0.111
3.195000;-0.0190;0.0155;-0.1371;0.139
3.201000;-0.0210;0.0404;-0.1664;0.173
3.204000;-0.0083;-0.0009;-0.1648;0.165
3.209000;-0.0261;-0.0198;-0.1730;0.176
3.215000;-0.0337;-0.0452;-0.1503;0.161
3.219000;-0.0358;-0.0175;-0.0949;0.103
3.224000;-0.0684;-0.0297;-0.0590;0.095
3.229000;-0.0649;-0.0010;-0.0236;0.069
3.239000;-0.0353;-0.0103;0.0423;0.056
3.241000;-0.0107;-0.0263;0.0933;0.097
3.243000;0.0373;-0.0160;0.1177;0.125
3.248000;0.0799;-0.0131;0.1706;0.189
3.281000;0.1172;-0.0083;0.1779;0.213
3.281000;0.1372;0.0273;0.1971;0.242
3.281000;0.1642;0.0336;0.1618;0.233
3.282000;0.1793;0.0584;0.1434;0.237
3.282000;0.1872;0.0778;-0.0597;0.211
3.282000;0.1834;0.1182;0.0497;0.224
3.284000;0.1847;0.0869;0.0848;0.221
3.290000;0.1908;0.1032;-0.0774;0.230
3.292000;0.2041;0.1243;-0.1149;0.265
3.298000;0.2484;0.0910;-0.1475;0.303
3.303000;0.2263;0.0940;-0.1799;0.304
3.307000;0.2141;0.0855;-0.1955;0.302
3.312000;0.1785;0.0822;-0.1755;0.264
3.316000;0.1481;0.1103;-0.1274;0.224
3.322000;0.1155;0.0934;-0.0750;0.166
3.327000;0.1137;0.0815;0.0030;0.140
3.332000;0.0925;0.1078;0.0851;0.166
3.342000;0.0900;0.0912;0.1546;0.201
3.344000;0.0705;0.0935;0.2355;0.263
3.346000;0.0603;0.0882;0.2850;0.304
3.352000;0.0927;0.0633;0.2726;0.295
3.356000;0.0844;0.0713;0.2889;0.309
3.361000;0.0929;0.0644;0.2696;0.292
3.365000;0.0848;0.0925;0.2270;0.259
3.371000;0.1196;0.0842;0.1540;0.212
3.375000;0.1044;0.0804;0.0699;0.149
3.381000;0.1112;0.0883;0.0079;0.142
3.385000;0.1254;0.0819;-0.0061;0.150
3.390000;0.1609;0.0659;-0.0485;0.181
3.395000;0.1487;0.0596;-0.0787;0.178
3.401000;0.1576;0.0535;-0.1181;0.204
3.406000;0.1471;0.0809;-0.1027;0.197
3.410000;0.1648;0.1060;-0.0970;0.219
3.414000;0.1463;0.1121;-0.0677;0.196
3.421000;0.1179;0.1256;-0.0269;0.174
3.425000;0.1086;0.1203;0.0326;0.165
3.430000;0.0872;0.0890;0.0725;0.144
3.437000;0.0731;0.0817;0.1192;0.162
3.439000;0.0380;0.0721;0.1845;0.202
3.444000;0.0413;0.0624;0.1687;0.184
3.449000;-0.0049;0.0621;0.1719;0.183
3.474000;-0.0338;0.0357;0.2061;0.212
3.475000;-0.0361;0.0590;0.2186;0.229
3.475000;-0.0074;0.0581;0.2311;0.238
3.476000;-0.0029;0.0570;0.2080;0.216
3.476000;0.0276;0.0459;0.2066;0.213
3.479000;0.0671;0.0653;0.1721;0.196
3.484000;0.0872;0.0627;0.1547;0.188
3.488000;0.0784;0.0503;0.1209;0.153
3.493000;0.0956;0.0686;0.1325;0.177
3.498000;0.0818;0.0888;0.1204;0.171
3.505000;0.0702;0.1157;0.0871;0.161
3.508000;0.0537;0.1374;0.0874;0.171
3.512000;0.0492;0.0853;0.0379;0.106
3.520000;0.0094;0.0953;0.0101;0.096
3.522000;0.0034;0.0674;-0.0103;0.068
3.527000;-0.0118;0.0612;-0.0353;0.072
3.532000;-0.0623;0.0575;-0.0341;0.091
3.553000;-0.0814;0.0563;-0.0472;0.110
3.554000;-0.1191;0.0435;-0.0270;0.130
3.555000;-0.1138;0.0474;-0.0615;0.138
3.555000;-0.1394;0.0158;-0.0364;0.145
3.557000;-0.1222;0.0389;-0.0756;0.149
3.562000;-0.1004;0.0095;-0.1216;0.158
3.566000;-0.0907;0.0137;-0.1577;0.182
3.572000;-0.0360;-0.0177;-0.1721;0.177
3.577000;0.0040;0.0275;-0.1890;0.191
3.582000;0.0505;0.0464;-0.2223;0.233
3.586000;0.0773;0.0559;-0.2270;0.246
3.592000;0.0611;0.0563;-0.2413;0.255
3.596000;0.0498;0.0572;-0.2318;0.244
3.602000;0.0317;0.0586;-0.1704;0.183
3.606000;0.0048;0.0247;-0.1333;0.136
3.611000;-0.0381;0.0457;-0.1013;0.117
3.616000;-0.0707;0.0098;-0.0649;0.096
3.621000;-0.1216;-0.0259;-0.0098;0.125
3.626000;-0.1431;-0.0448;0.0141;0.151
3.630000;-0.1782;-0.0449;-0.0002;0.184
3.642000;-0.2010;-0.0408;-0.0047;0.205
3.643000;-0.2023;-0.0349;-0.0421;0.210
3.646000;-0.1994;-0.0439;-0.0934;0.224
3.650000;-0.2090;-0.0412;-0.1797;0.279
3.684000;-0.1886;-0.0409;-0.2178;0.291
3.685000;-0.1809;-0.0451;-0.2770;0.334
3.686000;-0.1524;-0.0488;-0.3240;0.361
3.686000;-0.1554;-0.0589;-0.2996;0.343
3.686000;-0.1181;-0.0447;-0.2780;0.305
3.687000;-0.1355;-0.0323;-0.2686;0.303
3.689000;-0.1190;-0.0598;-0.2191;0.256
3.690000;-0.1613;-0.0557;-0.1701;0.241
3.694000;-0.1766;-0.0775;-0.0814;0.209
3.699000;-0.1842;-0.0893;-0.0290;0.207
3.707000;-0.2009;-0.0870;0.0111;0.219
3.709000;-0.1938;-0.0825;0.0462;0.216
3.713000;-0.1895;-0.0878;0.0858;0.226
3.721000;-0.1830;-0.0864;0.0896;0.221
3.723000;-0.1699;-0.0831;0.0556;0.197
3.728000;-0.1383;-0.0971;0.0149;0.170
3.750000;-0.1144;-0.1042;0.0032;0.155
3.751000;-0.0767;-0.1069;-0.0463;0.140
3.751000;-0.0491;-0.0671;-0.0882;0.121
3.756000;-0.0430;-0.0467;-0.1226;0.138
3.756000;-0.0414;-0.0214;-0.1710;0.177
3.759000;-0.0323;-0.0032;-0.1503;0.154
3.763000;-0.0156;-0.0111;-0.1820;0.183
3.769000;-0.0198;-0.0046;-0.2040;0.205
3.773000;-0.0305;0.0042;-0.2235;0.226
3.777000;-0.0407;0.0131;-0.2595;0.263
3.782000;-0.0458;0.0364;-0.2620;0.268
3.788000;-0.0817;0.0526;-0.3191;0.334
3.792000;-0.0677;0.0164;-0.3425;0.350
3.798000;-0.0731;0.0190;-0.3611;0.369
3.804000;-0.0885;-0.0161;-0.3560;0.367
3.807000;-0.0428;-0.0030;-0.3533;0.356
3.812000;-0.0597;-0.0299;-0.3603;0.366
3.816000;-0.0413;-0.0161;-0.3246;0.328
3.822000;-0.0234;0.0100;-0.3035;0.305
3.826000;-0.0678;0.0081;-0.2781;0.286
3.831000;-0.0833;-0.0003;-0.2199;0.235
3.840000;-0.0844;-0.0104;-0.1219;0.149
3.841000;-0.0922;0.0062;-0.0393;0.100
3.846000;-0.0948;0.0064;0.0498;0.107
3.851000;-0.1039;0.0040;0.1120;0.153
3.881000;-0.1123;-0.0100;0.1808;0.213
3.883000;-0.1034;-0.0290;0.2183;0.243
3.883000;-0.1393;-0.0434;0.1938;0.243
3.883000;-0.1295;-0.0226;0.1982;0.238
3.884000;-0.1457;-0.0189;0.1955;0.245
3.884000;-0.1452;-0.0061;0.1882;0.238
3.886000;-0.1542;0.0038;0.1716;0.231
3.891000;-0.1493;0.0013;0.1433;0.207
3.900000;-0.1636;0.0366;0.1083;0.200
3.901000;-0.1707;0.0761;0.0191;0.188
3.912000;-0.1230;0.0726;0.0160;0.144
3.912000;-0.0424;0.0785;-0.0155;0.091
3.915000;0.0207;0.0487;-0.0206;0.057
3.921000;0.0897;0.0381;-0.0708;0.120
3.924000;0.1121;0.0827;-0.0898;0.166
3.930000;0.1196;0.1205;-0.0543;0.178
3.934000;0.1244;0.1440;0.0022;0.190
3.946000;0.1503;0.1630;0.0557;0.229
3.947000;0.1572;0.1300;0.2369;0.313
3.949000;0.1522;0.1403;0.0937;0.227
3.956000;0.1147;0.1273;0.2078;0.269
3.959000;0.0665;0.1002;0.2972;0.321
3.963000;0.0292;0.0805;0.3266;0.338
3.969000;-0.0259;0.0870;0.3794;0.390
3.973000;-0.0590;0.0767;0.3873;0.399
3.978000;-0.0892;0.1044;0.4000;0.423
3.983000;-0.0786;0.1361;0.4105;0.440
3.988000;-0.0850;0.1552;0.3710;0.411
3.993000;-0.0247;0.1687;0.3365;0.377
3.997000;0.0207;0.1601;0.2880;0.330
4.004000;0.0704;0.1366;0.2396;0.285
4.008000;0.1121;0.1582;0.2010;0.279
4.013000;0.1101;0.1818;0.1626;0.268
4.018000;0.1051;0.1834;0.1458;0.257
4.023000;0.0784;0.1872;0.1554;0.256
4.027000;0.0706;0.1910;0.1148;0.234
4.033000;0.0365;0.1733;0.0575;0.186
4.040000;0.0263;0.1390;0.0624;0.155
4.043000;0.0094;0.1360;0.0266;0.139
4.046000;-0.0070;0.1299;0.0169;0.131
4.051000;-0.0275;0.1147;0.0215;0.120
4.074000;-0.0643;0.0855;0.0687;0.127
4.075000;-0.0415;0.0758;0.0419;0.096
4.075000;-0.0475;0.0616;0.0627;0.100
4.075000;-0.0249;0.0427;0.0644;0.081
4.076000;-0.0144;0.0262;0.0613;0.068
4.081000;0.0221;0.0025;0.0892;0.092
4.086000;0.0437;0.0143;0.0932;0.104
4.091000;0.0386;0.0140;0.0901;0.099
4.096000;0.0494;0.0537;0.1037;0.127
4.101000;0.0403;0.0454;0.1339;0.147
4.106000;0.0428;0.0275;0.1023;0.114
4.110000;0.0500;0.0451;0.1112;0.130
4.115000;0.0688;0.0101;0.0965;0.119
4.122000;0.0686;-0.0058;0.1009;0.122
4.124000;0.0735;-0.0049;0.0673;0.100
4.130000;0.0787;0.0196;0.0079;0.082
4.135000;0.0558;0.0108;0.0011;0.057
4.146000;0.0688;0.0192;-0.0342;0.079
4.146000;0.0749;0.0230;-0.0503;0.093
4.150000;0.0576;0.0034;-0.0307;0.065
4.154000;0.0645;0.0081;-0.0020;0.065
4.160000;0.0833;0.0154;0.0383;0.093
4.164000;0.0808;0.0061;0.0948;0.125
4.170000;0.0855;-0.0173;0.0844;0.121
4.174000;0.0713;0.0093;0.1548;0.171
4.178000;0.0715;-0.0050;0.1345;0.152
4.185000;0.0481;-0.0122;0.1121;0.123
4.189000;0.0180;-0.0055;0.0851;0.087
4.194000;-0.0093;-0.0014;0.0680;0.069
4.199000;0.0040;-0.0049;0.0203;0.021
4.204000;0.0146;-0.0395;-0.0388;0.057
4.209000;0.0559;-0.0455;-0.0712;0.101
4.213000;0.0633;-0.0491;-0.1319;0.154
4.218000;0.0845;-0.0574;-0.1778;0.205
4.223000;0.0835;-0.0204;-0.2139;0.231
4.228000;0.0606;0.0048;-0.2165;0.225
4.233000;0.0516;-0.0078;-0.2264;0.232
4.240000;0.0516;0.0181;-0.1936;0.201
4.242000;0.0729;0.0111;-0.1184;0.139
4.247000;0.0657;0.0018;-0.0938;0.115
4.275000;0.0638;-0.0074;-0.0480;0.080
4.275000;0.0859;-0.0046;-0.0477;0.098
4.276000;0.0396;-0.0134;-0.0166;0.045
4.276000;0.0155;0.0371;-0.0498;0.064
4.276000;-0.0105;-0.0054;-0.0354;0.037
4.281000;0.0020;0.0214;-0.0447;0.050
4.282000;-0.0234;0.0006;-0.0470;0.052
4.287000;-0.0344;-0.0175;-0.0587;0.070
4.292000;-0.0050;0.0050;-0.0537;0.054
4.297000;0.0481;-0.0297;-0.0536;0.078
4.301000;0.0770;-0.0383;-0.0367;0.093
4.306000;0.0913;-0.0351;-0.0057;0.098
4.311000;0.0981;-0.0035;-0.0200;0.100
4.316000;0.1257;0.0088;-0.0010;0.126
4.322000;0.1362;0.0302;0.0203;0.141
4.326000;0.1463;0.0300;0.0131;0.150
4.331000;0.1513;0.0224;-0.0178;0.154
4.336000;0.0947;-0.0064;-0.0865;0.128
4.341000;0.0770;-0.0019;-0.0999;0.126
4.345000;0.0219;-0.0046;-0.1488;0.150
4.350000;-0.0253;0.0026;-0.1547;0.157
4.380000;-0.0480;0.0101;-0.1678;0.175
4.381000;-0.0348;0.0320;-0.1784;0.185
4.381000;-0.0310;0.0424;-0.1607;0.169
4.382000;-0.0270;0.0149;-0.1455;0.149
4.382000;0.0032;0.0093;-0.1163;0.117
4.382000;0.0049;-0.0152;-0.1229;0.124
4.384000;0.0183;-0.0229;-0.0915;0.096
4.391000;0.0292;-0.0332;-0.0651;0.079
4.395000;0.0517;-0.0506;-0.0578;0.093
4.399000;0.0668;-0.0516;-0.0885;0.122
4.405000;0.0678;-0.0673;-0.1259;0.158
4.409000;0.0403;-0.0378;-0.2080;0.215
4.418000;0.0297;-0.0180;-0.2159;0.219
4.418000;0.0307;0.0279;-0.2665;0.270
4.424000;-0.0132;0.0571;-0.3239;0.329
4.429000;-0.0326;0.0582;-0.3407;0.347
4.434000;0.0269;0.0502;-0.2957;0.301
4.439000;0.0459;0.0640;-0.2323;0.245
4.443000;0.0554;0.0587;-0.2524;0.265
4.448000;0.0934;0.0510;-0.2011;0.228
4.468000;0.0811;0.0292;-0.1740;0.194
4.469000;0.0638;0.0146;-0.1400;0.155
4.469000;0.0326;0.0095;-0.1157;0.121
4.470000;0.0087;0.0064;-0.0821;0.083
4.473000;-0.0268;0.0126;-0.0913;0.096
4.478000;-0.0120;-0.0173;-0.0956;0.098
4.483000;-0.0259;-0.0617;-0.1377;0.153
4.489000;0.0072;-0.0538;-0.1746;0.183
4.492000;-0.0202;-0.0436;-0.2397;0.244
4.497000;-0.0081;-0.0119;-0.2711;0.271
4.502000;-0.0090;0.0221;-0.2476;0.249
4.508000;0.0011;0.0470;-0.2127;0.218
4.512000;0.0552;0.0675;-0.1403;0.165
4.517000;0.0726;0.0765;-0.0757;0.130
4.524000;0.0943;0.0265;-0.0213;0.100
4.527000;0.1347;0.0031;0.0398;0.140
4.532000;0.1183;-0.0031;0.0979;0.154
4.537000;0.0885;-0.0235;0.1294;0.158
4.563000;0.0717;-0.0104;0.1535;0.170
4.563000;0.0750;-0.0237;0.1347;0.156
4.564000;0.1076;-0.0345;0.1089;0.157
4.564000;0.1310;-0.0191;0.0786;0.154
4.564000;0.1850;0.0723;0.1506;0.249
4.566000;0.2505;-0.1124;0.1792;0.328
4.573000;0.1342;0.0489;0.1672;0.220
4.576000;0.1531;0.0933;0.2002;0.269
4.580000;0.2385;0.0569;0.3562;0.432
4.585000;0.2459;0.0680;0.4754;0.539
4.591000;0.2065;0.0451;0.4680;0.513
4.595000;0.1135;0.0834;0.4110;0.434
4.600000;0.0937;0.0567;0.3262;0.344
4.605000;0.1020;0.0794;0.2446;0.277
4.610000;0.0808;0.1275;-0.0165;0.152
4.615000;0.0583;0.1462;-0.0024;0.157
4.620000;0.0765;0.1740;-0.1093;0.219
4.625000;0.1441;0.2585;-0.2487;0.387
4.629000;0.2216;0.2926;-0.2510;0.445
4.635000;0.3171;0.3628;-0.2726;0.554
4.640000;0.3467;0.3997;-0.2751;0.596
4.644000;0.3586;0.4347;-0.2562;0.619
4.649000;0.3648;0.4462;-0.1921;0.608
4.691000;0.3799;0.4463;-0.1138;0.597
4.691000;0.3493;0.4252;-0.0525;0.553
4.692000;0.3237;0.3733;0.0135;0.494
4.692000;0.2894;0.3409;0.0387;0.449
4.692000;0.2469;0.2680;0.0614;0.370
4.693000;0.1891;0.2574;0.1032;0.336
4.693000;0.1589;0.2302;0.0828;0.292
4.693000;0.1655;0.2391;0.1747;0.339
4.693000;0.1464;0.2597;0.1781;0.347
4.698000;0.1376;0.2563;0.2150;0.362
4.703000;0.1102;0.2454;0.2519;0.369
4.707000;0.0998;0.1886;0.3128;0.379
4.716000;0.0749;0.1505;0.3451;0.384
4.718000;0.0946;0.1595;0.3227;0.372
4.723000;0.1134;0.1462;0.2526;0.313
4.727000;0.1427;0.1588;0.1350;0.253
4.733000;0.1441;0.2288;0.1011;0.289
4.740000;0.1387;0.2755;0.1125;0.328
4.744000;0.0863;0.2821;0.1405;0.327
4.747000;0.0354;0.2726;0.2925;0.401
4.752000;0.0343;0.2708;0.3844;0.472
4.770000;0.0504;0.2622;0.4499;0.523
4.771000;0.0841;0.1864;0.5321;0.570
4.771000;0.0591;0.1704;0.5783;0.606
4.773000;0.0734;0.1756;0.6103;0.639
4.776000;0.0743;0.1492;0.6304;0.652
4.781000;0.0738;0.1242;0.6435;0.660
4.786000;0.0570;0.1293;0.5709;0.588
4.791000;0.0252;0.1929;0.4294;0.471
4.796000;0.0349;0.2533;0.2572;0.363
4.801000;0.0593;0.3801;0.0758;0.392
4.807000;0.0909;0.4779;-0.0958;0.496
4.810000;0.1039;0.5636;-0.1836;0.602
4.816000;0.0961;0.6804;-0.2163;0.720
4.821000;0.1040;0.7881;-0.2563;0.835
4.825000;0.1279;0.9103;-0.2270;0.947
4.830000;0.2113;0.9684;-0.1979;1.011
4.835000;0.2804;0.9839;-0.1810;1.039
4.841000;0.3788;0.9495;-0.1784;1.038
4.844000;0.4471;0.9394;-0.1712;1.054
4.849000;0.4827;0.9224;-0.2047;1.061
4.878000;0.4806;0.9247;-0.3099;1.087
4.879000;0.4789;0.8006;-0.4221;1.024
4.879000;0.4081;0.6890;-0.5129;0.951
4.879000;0.3715;0.5710;-0.5774;0.893
4.880000;0.2496;0.4490;-0.6779;0.851
4.880000;0.0973;0.4022;-0.7473;0.854
4.885000;-0.0873;0.3732;-0.7502;0.842
4.890000;-0.3083;0.3718;-0.6625;0.820
4.894000;-0.4744;0.4383;-0.5512;0.849
4.899000;-0.5411;0.4691;-0.3374;0.792
4.904000;-0.5936;0.4664;-0.2721;0.802
4.909000;-0.6940;0.4201;-0.2043;0.837
4.913000;-0.7792;0.4470;-0.1506;0.911
4.918000;-0.8582;0.4678;-0.1158;0.984
4.924000;-0.8827;0.5634;-0.0830;1.050
4.928000;-0.8833;0.6089;-0.1237;1.080
4.933000;-0.8332;0.6139;-0.2904;1.075
4.938000;-0.7925;0.5974;-0.5160;1.119
4.956000;-0.6943;0.6269;-0.7623;1.207
4.957000;-0.6159;0.6741;-0.9863;1.344
4.957000;-0.5671;0.7679;-1.2265;1.554
4.958000;-0.5205;0.8038;-1.4852;1.767
4.962000;-0.5102;0.9253;-1.6910;1.994
4.968000;-0.4823;0.9894;-1.8916;2.189
4.972000;-0.4640;1.0346;-2.0396;2.334
4.976000;-0.4272;1.0805;-2.1397;2.435
4.982000;-0.4491;1.1056;-2.1421;2.452
4.987000;-0.4609;1.1223;-2.1257;2.448
4.992000;-0.4387;1.1183;-2.0093;2.341
4.997000;-0.4492;1.1294;-1.9005;2.256
5.002000;-0.4799;1.0696;-1.7921;2.142
5.007000;-0.5819;0.9624;-1.7080;2.045
5.012000;-0.6961;0.8553;-1.6597;1.993
5.016000;-0.7423;0.8058;-1.6641;1.992
5.021000;-0.8144;0.7874;-1.6542;2.005
5.026000;-0.8844;0.7984;-1.6372;2.025
5.031000;-0.9458;0.8006;-1.6636;2.074
5.039000;-0.9916;0.7779;-1.6378;2.067
5.054000;-0.9406;0.7999;-1.5622;1.991
5.055000;-0.8598;0.8143;-1.4778;1.894
5.055000;-0.7274;0.8139;-1.2960;1.694
5.056000;-0.5579;0.8131;-1.0673;1.453
5.060000;-0.3795;0.8046;-0.8392;1.223
5.066000;-0.2376;0.8212;-0.6119;1.051
5.070000;-0.1053;0.8339;-0.4232;0.941
5.077000;-0.0418;0.8902;-0.2086;0.915
5.080000;0.0202;0.9058;-0.0324;0.907
5.085000;0.0450;0.9304;0.1221;0.939
5.090000;0.0954;0.9710;0.2122;0.998
5.095000;0.1090;0.9531;0.2810;1.000
5.100000;0.1316;0.8936;0.3524;0.970
5.104000;0.0315;0.8638;0.3883;0.948
5.110000;-0.0144;0.8253;0.3624;0.901
5.115000;-0.0804;0.7685;0.2868;0.824
5.119000;-0.1905;0.7462;0.1687;0.788
5.125000;-0.2997;0.7058;0.0152;0.767
5.130000;-0.3894;0.6741;-0.1092;0.786
5.134000;-0.4672;0.5869;-0.2404;0.788
5.138000;-0.5644;0.6021;-0.3450;0.894
5.151000;-0.6073;0.5887;-0.4567;0.961
5.151000;-0.6319;0.6043;-0.5134;1.014
5.153000;-0.6171;0.6488;-0.5271;1.039
5.164000;-0.5458;0.7487;-0.4931;1.050
5.165000;-0.4420;0.8015;-0.4211;1.008
5.169000;-0.3223;0.8717;-0.2849;0.972
5.174000;-0.2108;0.9231;-0.1059;0.953
5.178000;-0.1382;0.9604;0.0632;0.972
5.183000;-0.0613;0.9713;0.1939;0.992
5.187000;-0.0535;0.9963;0.3508;1.058
5.192000;-0.0479;0.9824;0.4383;1.077
5.198000;-0.0924;0.9607;0.4924;1.084
5.203000;-0.1699;0.9671;0.5586;1.130
5.208000;-0.2827;0.9442;0.5174;1.113
5.213000;-0.3783;0.9183;0.5217;1.122
5.218000;-0.4587;0.9063;0.4617;1.116
5.226000;-0.5531;0.8798;0.4543;1.134
5.227000;-0.5968;0.8532;0.4136;1.120
5.232000;-0.6217;0.8098;0.4016;1.097
5.237000;-0.6064;0.8238;0.4087;1.102
5.252000;-0.6157;0.8239;0.4301;1.115
5.253000;-0.6020;0.8624;0.5112;1.169
5.253000;-0.5175;0.8627;0.6470;1.196
5.262000;-0.4792;0.8511;0.7541;1.234
5.263000;-0.4562;0.9112;0.8825;1.348
5.266000;-0.3980;0.9328;1.0132;1.434
5.271000;-0.3250;0.9233;1.1223;1.489
5.276000;-0.2272;0.9586;1.3844;1.699
5.280000;-0.1881;0.9454;1.6104;1.877
5.286000;-0.1454;0.9243;1.5304;1.794
5.291000;-0.1443;0.9000;1.5966;1.838
5.296000;-0.1531;0.8990;1.5935;1.836
5.301000;-0.1763;0.9430;1.5570;1.829
5.306000;-0.2046;0.9672;1.4610;1.764
5.313000;-0.2001;0.9290;1.3866;1.681
5.316000;-0.1637;0.8811;1.3435;1.615
5.321000;-0.0890;0.7713;1.2406;1.464
5.325000;-0.0127;0.6308;1.1426;1.305
5.330000;0.0216;0.5389;1.0972;1.223
5.335000;-0.0030;0.4454;1.1066;1.193
5.343000;-0.0720;0.4413;1.1157;1.202
5.344000;-0.1323;0.4691;1.1772;1.274
5.350000;-0.1934;0.4854;1.2242;1.331
5.354000;-0.2574;0.5093;1.3331;1.450
5.369000;-0.2548;0.4857;1.4012;1.505
5.369000;-0.1759;0.4310;1.4477;1.521
5.370000;-0.1376;0.3617;1.4344;1.486
5.378000;-0.0080;0.3089;1.4189;1.452
5.379000;0.1054;0.2794;1.4132;1.444
5.384000;0.2481;0.2898;1.4244;1.475
5.389000;0.3745;0.3015;1.4215;1.501
5.394000;0.4778;0.3502;1.3138;1.441
5.398000;0.5937;0.3400;1.2139;1.393
5.404000;0.6936;0.2878;1.0427;1.285
5.409000;0.7894;0.2013;0.8219;1.157
5.413000;0.8418;0.1599;0.6134;1.054
5.418000;0.8791;0.1217;0.3356;0.949
5.426000;0.8408;0.0755;0.1128;0.852
5.427000;0.7629;0.0271;-0.0125;0.763
5.433000;0.6571;0.0061;-0.0980;0.664
5.439000;0.5352;-0.0636;-0.0386;0.540
5.455000;0.4187;-0.1363;0.1318;0.460
5.456000;0.2576;-0.2573;0.4203;0.556
5.456000;0.1386;-0.3916;0.7698;0.875
5.460000;0.0433;-0.4782;1.1278;1.226
5.463000;-0.0754;-0.5371;1.5065;1.601
5.467000;-0.1762;-0.5699;1.8274;1.922
5.472000;-0.2202;-0.5801;2.1603;2.248
5.476000;-0.2878;-0.5524;2.3550;2.436
5.482000;-0.2878;-0.4930;2.4525;2.518
5.487000;-0.2465;-0.4796;2.4102;2.470
5.492000;-0.1861;-0.4316;2.2741;2.322
5.496000;-0.0955;-0.4231;1.9868;2.034
5.502000;0.0174;-0.3203;1.5891;1.621
5.506000;0.1252;-0.2300;1.1289;1.159
5.512000;0.2416;-0.1278;0.6349;0.691
5.516000;0.3684;-0.0385;0.1926;0.417
5.521000;0.4620;0.0053;-0.2507;0.526
5.526000;0.5697;0.0626;-0.6429;0.861
5.531000;0.6196;0.0838;-0.9436;1.132
5.536000;0.5827;0.1064;-1.1940;1.333
5.555000;0.5092;0.0663;-1.3800;1.472
5.556000;0.4089;0.0531;-1.4566;1.514
5.556000;0.3020;0.0265;-1.4718;1.503
5.557000;0.2402;-0.0723;-1.5049;1.526
5.562000;0.1939;-0.1764;-1.4294;1.453
5.565000;0.1955;-0.2615;-1.2502;1.292
5.569000;0.2189;-0.3592;-1.0366;1.119
5.575000;0.2381;-0.4175;-0.8293;0.958
5.580000;0.2533;-0.4202;-0.6471;0.812
5.585000;0.2574;-0.4304;-0.4419;0.668
5.590000;0.2858;-0.4082;-0.2686;0.566
5.594000;0.2899;-0.3803;-0.2176;0.525
5.599000;0.2978;-0.3259;-0.2529;0.509
5.604000;0.2998;-0.2377;-0.3097;0.492
5.609000;0.2979;-0.1638;-0.2757;0.438
5.615000;0.3277;-0.0902;-0.3134;0.462
5.618000;0.3727;-0.0454;-0.4443;0.582
5.623000;0.4119;-0.0465;-0.5748;0.709
5.629000;0.4356;-0.0503;-0.7887;0.902
5.633000;0.4291;-0.0974;-0.9736;1.068
5.638000;0.3610;-0.1041;-1.1963;1.254
5.644000;0.2452;-0.0914;-1.4380;1.462
5.648000;0.0834;-0.0211;-1.6316;1.634
5.653000;-0.1469;-0.0164;-1.6724;1.679
5.682000;-0.4973;0.0088;-1.5725;1.649
5.682000;-0.8898;0.0238;-1.4087;1.666
5.683000;-1.2168;0.0780;-1.1976;1.709
5.683000;-1.3725;0.0800;-0.9319;1.661
5.683000;-1.3321;0.0553;-0.7262;1.518
5.684000;-1.1115;-0.0303;-0.6159;1.271
5.687000;-0.8369;-0.1293;-0.5148;0.991
5.693000;-0.5344;-0.1991;-0.4611;0.733
5.697000;-0.2753;-0.2158;-0.4595;0.577
5.702000;-0.0930;-0.1698;-0.4883;0.525
5.709000;0.0009;-0.0566;-0.6074;0.610
5.712000;0.1673;0.0907;-0.6517;0.679
5.717000;0.3581;0.1696;-0.6048;0.723
5.722000;0.6169;0.0490;-0.3569;0.714
5.727000;0.6681;0.3460;-0.4364;0.870
5.732000;0.7055;0.5410;-0.4867;1.014
5.738000;1.1119;0.4448;-0.0703;1.200
5.745000;1.0100;0.4682;-0.5068;1.223
5.746000;0.8734;0.5010;-0.8224;1.300
5.752000;0.6778;0.6153;-1.0796;1.415
5.771000;0.5191;0.6969;-1.1592;1.449
5.771000;0.4760;0.7795;-1.1547;1.472
5.772000;0.4795;0.7754;-1.1406;1.460
5.772000;0.4643;0.7879;-1.1432;1.464
5.781000;0.5357;0.7462;-1.0909;1.426
5.781000;0.6352;0.6645;-1.0602;1.403
5.786000;0.6849;0.6316;-1.0059;1.371
5.790000;0.7291;0.5466;-0.9278;1.300
5.795000;0.6979;0.3648;-0.8501;1.159
5.800000;0.6411;0.2129;-0.8183;1.061
5.806000;0.5763;0.0955;-0.7416;0.944
5.810000;0.5104;0.0363;-0.7252;0.888
5.815000;0.4018;-0.0026;-0.7932;0.889
5.820000;0.3635;0.0100;-0.9000;0.971
5.827000;0.5253;0.1704;-0.7734;0.950
5.831000;0.4793;0.1204;-0.9202;1.044
5.834000;0.4445;0.3145;-1.1081;1.235
5.839000;0.5601;0.5155;-1.2845;1.493
5.864000;0.7119;0.5179;-1.2749;1.549
5.865000;0.7961;0.6801;-1.3016;1.670
5.865000;0.7337;0.8247;-1.3740;1.762
5.865000;0.5750;0.8960;-1.4418;1.792
5.865000;0.2403;0.7578;-1.5765;1.766
5.869000;0.1952;0.8460;-1.2334;1.508
5.873000;0.1747;0.7068;-0.8857;1.147
5.881000;0.2155;0.5932;-0.6002;0.871
5.884000;0.1894;0.5392;-0.4368;0.719
5.889000;0.2442;0.4977;-0.4146;0.692
5.893000;0.3001;0.6288;-0.3998;0.803
5.898000;0.2737;0.8367;-0.2776;0.923
5.903000;0.1848;1.0229;-0.1604;1.052
5.908000;0.0549;1.0482;-0.0002;1.050
5.913000;-0.0296;0.9411;0.2103;0.965
5.917000;0.0005;0.7995;0.4112;0.899
5.923000;0.1453;0.5274;0.6219;0.828
5.927000;0.2850;0.3327;0.7946;0.907
5.932000;0.3936;0.2082;0.9292;1.030
5.938000;0.4505;0.1920;0.9830;1.098
5.956000;0.4356;0.1977;1.2189;1.309
5.958000;0.3925;0.2828;1.0680;1.172
5.958000;0.2789;0.3974;1.0516;1.158
5.959000;0.1407;0.4961;1.1983;1.305
5.963000;0.0214;0.5646;1.2019;1.328
5.966000;-0.0885;0.5429;1.1679;1.291
5.971000;-0.1675;0.5290;1.1299;1.259
5.977000;-0.1708;0.4731;0.9945;1.114
5.981000;-0.1752;0.4040;0.8908;0.994
5.986000;-0.2055;0.3005;0.7997;0.879
5.991000;-0.1928;0.2011;0.6588;0.715
5.995000;-0.2025;0.1539;0.5086;0.569
6.000000;-0.2829;0.1906;0.3753;0.507
6.005000;-0.3415;0.2395;0.2707;0.497
6.011000;-0.3145;0.3289;0.2282;0.509
6.016000;-0.2363;0.3635;0.2023;0.478
6.020000;-0.1347;0.3864;0.1831;0.448
6.028000;-0.0322;0.3383;0.1993;0.394
6.030000;0.0436;0.3147;0.1909;0.371
6.035000;0.1268;0.2946;0.2392;0.400
6.039000;0.1513;0.3304;0.3609;0.512
6.074000;0.1833;0.3457;0.4939;0.630
6.075000;0.2119;0.3236;0.6337;0.742
6.075000;0.2629;0.2638;0.8256;0.906
6.075000;0.3039;0.2167;1.0077;1.075
6.076000;0.3774;0.0986;1.2134;1.275
6.076000;0.4864;-0.0216;1.4071;1.489
6.080000;0.5342;-0.1176;1.5457;1.640
6.081000;0.5215;-0.2278;1.6103;1.708
6.084000;0.5332;-0.2521;1.5938;1.699
6.089000;0.5477;-0.2626;1.4941;1.613
6.101000;0.4720;-0.2615;1.2657;1.376
6.102000;0.3387;-0.1962;1.0186;1.091
6.104000;0.2160;-0.1450;0.7528;0.796
6.109000;0.1032;-0.0837;0.5062;0.523
6.113000;0.0232;-0.0952;0.2524;0.271
6.118000;-0.1158;-0.1364;0.0056;0.179
6.124000;-0.2045;-0.1323;-0.1844;0.305
6.129000;-0.3150;-0.1232;-0.2053;0.396
6.133000;-0.4350;-0.1043;-0.2057;0.492
6.139000;-0.5429;-0.1023;-0.0324;0.553
6.153000;-0.6168;-0.1582;0.1114;0.646
6.154000;-0.6752;-0.2706;0.2714;0.776
6.154000;-0.6981;-0.3756;0.3453;0.865
6.163000;-0.7881;-0.4283;0.3595;0.966
6.164000;-0.9116;-0.5367;0.3168;1.104
6.168000;-1.0511;-0.5286;0.3175;1.219
6.173000;-1.0945;-0.5025;0.2995;1.241
6.177000;-1.1759;-0.4612;0.2440;1.286
6.182000;-1.1977;-0.4000;0.1438;1.271
6.187000;-1.1750;-0.3457;0.0446;1.226
6.193000;-1.1330;-0.2982;-0.0991;1.176
6.197000;-1.1110;-0.2911;-0.2730;1.180
6.202000;-1.0813;-0.2524;-0.4270;1.190
6.207000;-1.0000;-0.1649;-0.5564;1.156
6.213000;-0.9466;-0.1337;-0.6806;1.174
6.216000;-0.8528;-0.1131;-0.7496;1.141
6.221000;-0.7550;-0.1123;-0.8067;1.111
6.228000;-0.7205;-0.1306;-0.8615;1.131
6.231000;-0.6707;-0.1943;-0.9357;1.168
6.236000;-0.6940;-0.2744;-0.9935;1.243
6.240000;-0.7704;-0.3537;-0.9919;1.305
6.247000;-0.8316;-0.4012;-0.9644;1.335
6.250000;-0.9126;-0.4334;-0.9469;1.385
6.255000;-0.9213;-0.4573;-0.8437;1.330
6.281000;-0.9433;-0.4228;-0.7124;1.255
6.282000;-0.9228;-0.4253;-0.5529;1.157
6.283000;-0.8831;-0.4361;-0.4131;1.068
6.284000;-0.7895;-0.4672;-0.2857;0.961
6.284000;-0.6794;-0.5236;-0.1587;0.872
6.286000;-0.5017;-0.5337;-0.1180;0.742
6.290000;-0.3498;-0.5502;-0.0799;0.657
6.295000;-0.1948;-0.5472;-0.0801;0.586
6.300000;-0.0547;-0.5174;-0.1211;0.534
6.305000;0.0840;-0.4705;-0.1979;0.517
6.309000;0.3325;-0.4520;-0.2652;0.621
6.315000;0.6544;-0.4188;-0.3015;0.833
6.319000;0.5663;-0.3420;-0.2352;0.702
6.328000;0.3141;-0.3106;-0.2216;0.494
6.329000;0.1236;-0.2650;-0.2963;0.416
6.334000;0.0213;-0.2337;-0.2682;0.356
6.339000;-0.0317;-0.2548;-0.1349;0.290
6.353000;-0.0893;-0.2784;-0.0234;0.293
6.353000;-0.1395;-0.3474;-0.0003;0.374
6.353000;-0.1316;-0.3977;-0.0703;0.425
6.359000;-0.1647;-0.4509;-0.1902;0.516
6.365000;-0.1980;-0.4522;-0.2690;0.562
6.369000;-0.2267;-0.4445;-0.3356;0.601
6.373000;-0.2610;-0.3536;-0.4545;0.632
6.379000;-0.2730;-0.2894;-0.5349;0.667
6.383000;-0.2895;-0.2851;-0.6032;0.727
6.388000;-0.3342;-0.2591;-0.6381;0.765
6.396000;-0.2784;-0.1300;-0.7280;0.790
6.397000;-0.1669;-0.0079;-0.8872;0.903
6.403000;-0.0155;0.0827;-0.9888;0.992
6.408000;0.0736;0.1730;-1.0208;1.038
6.414000;0.1708;0.2179;-0.9955;1.033
6.417000;0.2617;0.2749;-1.0587;1.125
6.423000;0.3155;0.3489;-1.1220;1.217
6.429000;0.3682;0.3991;-1.1542;1.276
6.431000;0.3504;0.4162;-1.1961;1.314
6.437000;0.3172;0.3979;-1.1951;1.299
6.442000;0.2735;0.3753;-1.1919;1.279
6.455000;0.2124;0.3700;-1.2319;1.304
6.456000;0.1316;0.3750;-1.2458;1.308
6.457000;0.0385;0.3735;-1.2767;1.331
6.461000;-0.0263;0.3777;-1.2720;1.327
6.467000;-0.0744;0.3829;-1.2725;1.331
6.471000;-0.1773;0.3939;-1.2709;1.342
6.476000;-0.2672;0.3748;-1.2625;1.344
6.480000;-0.3510;0.3754;-1.1970;1.303
6.486000;-0.3760;0.3695;-1.1629;1.277
6.491000;-0.3785;0.3832;-1.1074;1.231
6.495000;-0.3876;0.4044;-1.0187;1.163
6.500000;-0.3540;0.3827;-0.9158;1.054
6.505000;-0.3548;0.4038;-0.8606;1.015
6.511000;-0.3401;0.4056;-0.8175;0.974
6.515000;-0.3458;0.4282;-0.7647;0.942
6.520000;-0.3863;0.4339;-0.7142;0.921
6.525000;-0.3660;0.5035;-0.6515;0.901
6.530000;-0.3686;0.5293;-0.6461;0.913
6.535000;-0.3487;0.6022;-0.6190;0.931
6.540000;-0.3345;0.6484;-0.6109;0.952
6.547000;-0.3088;0.6940;-0.5954;0.965
6.554000;-0.2546;0.6843;-0.6157;0.955
6.555000;-0.2284;0.7007;-0.6144;0.959
6.559000;-0.2036;0.6884;-0.6346;0.958
6.587000;-0.2298;0.7069;-0.6379;0.980
6.589000;-0.2810;0.7445;-0.6818;1.048
6.589000;-0.3454;0.7771;-0.6994;1.101
6.589000;-0.3779;0.8143;-0.7264;1.155
6.590000;-0.3649;0.8371;-0.7295;1.169
6.590000;-0.3521;0.8769;-0.6945;1.173
6.600000;-0.3112;0.8833;-0.6236;1.125
6.601000;-0.2878;0.8874;-0.5314;1.074
6.603000;-0.2460;0.8771;-0.3102;0.962
6.608000;-0.2480;0.8377;0.0351;0.874
6.613000;-0.2003;0.8239;0.1412;0.860
6.618000;-0.1933;0.8400;0.5392;1.017
6.623000;-0.1930;0.7994;0.7987;1.146
6.629000;-0.1868;0.7497;0.9175;1.200
6.632000;-0.1982;0.6979;1.0847;1.305
6.640000;-0.1722;0.6560;1.0756;1.272
6.642000;-0.1974;0.6025;1.0457;1.223
6.656000;-0.2025;0.5520;0.9901;1.152
6.656000;-0.2501;0.5360;0.9041;1.080
6.657000;-0.3167;0.5308;0.8592;1.058
6.662000;-0.4196;0.5916;0.8530;1.120
6.667000;-0.4872;0.6679;0.8352;1.175
6.672000;-0.5437;0.7337;0.8321;1.235
6.678000;-0.5204;0.7887;0.8414;1.265
6.681000;-0.4656;0.7925;0.8534;1.254
6.686000;-0.3413;0.7767;0.9255;1.255
6.692000;-0.1761;0.6578;0.9976;1.208
6.700000;-0.0631;0.5553;1.0435;1.184
6.701000;0.0126;0.4815;1.0895;1.191
6.706000;0.0518;0.4963;1.1092;1.216
6.711000;0.0199;0.5358;1.1215;1.243
6.716000;-0.0610;0.5643;1.1046;1.242
6.720000;-0.1215;0.5994;1.1398;1.294
6.726000;-0.0953;0.5459;1.1095;1.240
6.731000;-0.0095;0.4668;1.0782;1.175
6.736000;0.1135;0.3386;1.0816;1.139
6.741000;0.2682;0.1906;1.1241;1.171
6.747000;0.3566;0.0876;1.1769;1.233
6.750000;0.4415;0.0274;1.2663;1.341
6.755000;0.5380;-0.0574;1.3350;1.440
6.760000;0.6330;-0.1311;1.3903;1.533
6.774000;0.7509;-0.2894;1.4417;1.651
6.775000;0.8227;-0.4849;1.4608;1.745
6.775000;0.8102;-0.6456;1.4476;1.780
6.780000;0.7830;-0.8199;1.4573;1.846
6.785000;0.6502;-0.9550;1.4802;1.878
6.789000;0.4549;-1.0058;1.5834;1.930
6.795000;0.2208;-1.0736;1.7003;2.023
6.798000;0.0027;-1.1058;1.8020;2.114
6.804000;-0.1711;-1.1130;1.9083;2.216
6.809000;-0.3175;-1.1721;2.0645;2.395
6.813000;-0.4005;-1.2412;2.1516;2.516
6.819000;-0.4866;-1.2917;2.3058;2.687
6.823000;-0.5163;-1.3372;2.4584;2.846
6.829000;-0.4803;-1.3515;2.5685;2.942
6.835000;-0.4651;-1.3336;2.6536;3.006
6.839000;-0.4617;-1.2884;2.7279;3.052
6.847000;-0.4588;-1.2338;2.7535;3.052
6.848000;-0.4041;-1.1558;2.6492;2.918
6.856000;-0.3457;-1.1190;2.4583;2.723
6.858000;-0.3031;-1.0614;2.2622;2.517
6.876000;-0.2406;-1.0257;1.9913;2.253
6.879000;-0.2202;-0.9849;1.6839;1.963
6.879000;-0.1941;-0.9578;1.3734;1.686
6.879000;-0.1810;-0.8911;1.0690;1.403
6.883000;-0.1730;-0.8127;0.6918;1.081
6.887000;-0.1556;-0.7774;0.3970;0.887
6.892000;-0.1146;-0.7078;0.1007;0.724
6.897000;-0.1006;-0.6561;-0.2068;0.695
6.903000;-0.0279;-0.6647;-0.4995;0.832
6.907000;-0.0024;-0.6184;-0.7987;1.010
6.912000;0.0495;-0.5978;-1.0357;1.197
6.917000;0.1039;-0.5094;-1.2367;1.342
6.921000;0.1705;-0.4507;-1.4163;1.496
6.927000;0.2875;-0.2996;-1.5101;1.566
6.931000;0.4265;-0.2157;-1.5543;1.626
6.936000;0.5232;-0.0988;-1.5655;1.654
6.942000;0.6235;0.0108;-1.5392;1.661
6.958000;0.6920;0.1655;-1.4276;1.595
6.958000;0.7753;0.2314;-1.3383;1.564
6.959000;0.8260;0.2943;-1.1733;1.465
6.960000;0.8475;0.2939;-1.0185;1.357
6.969000;0.8430;0.2541;-0.8906;1.252
6.971000;0.8370;0.2054;-0.7751;1.159
6.976000;0.7704;0.1332;-0.6983;1.048
6.981000;0.6889;0.1039;-0.7004;0.988
6.986000;0.5427;0.0388;-0.7219;0.904
6.990000;0.3577;-0.0098;-0.7720;0.851
6.995000;0.1334;-0.0226;-0.8651;0.876
7.000000;-0.0958;-0.0310;-0.9318;0.937
7.005000;-0.3070;-0.0130;-1.0079;1.054
7.010000;-0.3987;-0.0070;-1.1102;1.180
7.015000;-0.5249;-0.0249;-1.1239;1.241
7.020000;-0.5765;-0.0449;-1.1830;1.317
7.024000;-0.6855;-0.0815;-1.2109;1.394
7.030000;-0.7684;-0.0508;-1.1719;1.402
7.034000;-0.8083;-0.0465;-1.0995;1.365
7.039000;-0.8074;-0.0542;-1.0461;1.323
7.044000;-0.7797;-0.0431;-0.9856;1.257
7.049000;-0.7249;-0.0371;-0.9464;1.193
7.054000;-0.6210;-0.0459;-0.9120;1.104
7.059000;-0.5296;-0.0290;-0.9013;1.046
7.085000;-0.4405;0.0039;-0.9023;1.004
7.086000;-0.3558;0.1176;-0.9295;1.002
7.086000;-0.2848;0.2043;-0.9565;1.019
7.086000;-0.2367;0.2930;-0.9762;1.046
7.087000;-0.1496;0.3789;-1.0388;1.116
7.090000;0.0077;0.4551;-1.1539;1.240
7.093000;0.1369;0.4814;-1.2834;1.378
7.098000;0.2409;0.5083;-1.4177;1.525
7.103000;0.3749;0.5453;-1.5258;1.663
7.108000;0.4409;0.5402;-1.5910;1.737
7.113000;0.4673;0.5720;-1.5801;1.744
7.117000;0.4444;0.6048;-1.5719;1.742
7.122000;0.4389;0.6384;-1.5042;1.692
7.127000;0.4238;0.6846;-1.4344;1.645
7.133000;0.4059;0.7074;-1.3386;1.568
7.137000;0.4016;0.7259;-1.2288;1.483
7.143000;0.4008;0.7328;-1.1263;1.402
7.159000;0.3747;0.7636;-0.9714;1.291
7.160000;0.3519;0.7632;-0.8166;1.172
7.160000;0.3370;0.7529;-0.7120;1.090
7.162000;0.3231;0.7710;-0.6290;1.046
7.167000;0.2770;0.7314;-0.5555;0.959
7.171000;0.2112;0.7248;-0.4748;0.892
7.176000;0.1461;0.6510;-0.3726;0.764
7.181000;0.1000;0.6128;-0.2967;0.688
7.186000;0.0306;0.5742;-0.1539;0.595
7.191000;0.0459;0.5545;-0.0040;0.556
7.196000;0.0476;0.5460;0.1148;0.560
7.200000;0.0761;0.5845;0.2146;0.627
7.206000;0.1450;0.6123;0.2860;0.691
7.211000;0.1932;0.6506;0.2908;0.738
7.219000;0.2534;0.6207;0.2818;0.727
7.220000;0.2765;0.6590;0.3018;0.776
7.225000;0.1495;0.6506;0.3126;0.737
7.230000;-0.3188;0.5410;0.3787;0.733
7.238000;-0.9040;0.3593;0.5095;1.098
7.240000;-0.7721;0.2945;0.5661;1.002
7.247000;-0.6719;0.4442;0.6469;1.033
7.249000;-0.4901;0.5170;0.8328;1.096
7.254000;-0.2660;0.5436;0.9518;1.128
7.259000;-0.0597;0.5976;0.9301;1.107
7.272000;0.1698;0.5977;0.8730;1.072
7.272000;0.3956;0.5899;0.8211;1.086
7.275000;0.5744;0.5962;0.7574;1.122
7.282000;0.6224;0.6384;0.6865;1.125
7.284000;0.5312;0.6326;0.7688;1.128
7.289000;0.3767;0.6628;0.6406;0.996
7.293000;0.2245;0.7169;0.5963;0.959
7.299000;0.1442;0.7594;0.6142;0.987
7.304000;0.1519;0.7064;0.6058;0.943
7.308000;0.1839;0.6681;0.6117;0.924
7.313000;0.2751;0.5800;0.5697;0.858
7.318000;0.3603;0.5191;0.4534;0.778
7.323000;0.4204;0.4638;0.2940;0.692
7.328000;0.3290;0.3882;0.1942;0.545
7.335000;0.2119;0.2593;0.2302;0.406
7.343000;0.0869;0.1900;0.4113;0.461
7.344000;0.0555;0.1765;0.5723;0.601
7.361000;0.0922;0.1588;0.6031;0.630
7.362000;0.0893;0.0914;0.6520;0.664
7.362000;0.0416;0.0001;0.8435;0.844
7.363000;-0.0990;-0.1179;1.0817;1.093
7.367000;-0.1899;-0.1648;1.3405;1.364
7.372000;-0.1870;-0.2080;1.5506;1.576
7.377000;-0.1847;-0.2242;1.7265;1.751
7.385000;-0.1935;-0.2379;1.8850;1.910
7.386000;-0.1941;-0.2850;1.9905;2.020
7.392000;-0.1090;-0.3107;2.0073;2.034
7.397000;0.0102;-0.3533;2.0908;2.120
7.402000;0.2055;-0.3916;2.1791;2.224
7.406000;0.3532;-0.4281;2.2674;2.334
7.411000;0.4090;-0.4774;2.2819;2.367
7.416000;0.4191;-0.5274;2.2895;2.387
7.421000;0.4377;-0.5543;2.2234;2.333
7.426000;0.3994;-0.5941;2.1077;2.226
7.432000;0.3557;-0.6398;2.0046;2.134
7.436000;0.2739;-0.7055;1.8137;1.965
7.440000;0.1282;-0.8177;1.5855;1.789
7.464000;-0.0553;-0.8592;1.4464;1.683
7.465000;-0.2438;-0.8683;1.2125;1.511
7.465000;-0.4022;-0.8331;1.0224;1.379
7.465000;-0.6152;-0.8068;0.8284;1.310
7.466000;-0.7232;-0.7608;0.6018;1.210
7.470000;-0.8116;-0.7071;0.4670;1.173
7.475000;-0.8239;-0.6747;0.2470;1.093
7.481000;-0.8212;-0.6204;0.0781;1.032
7.485000;-0.7758;-0.5731;-0.1068;0.970
7.490000;-0.6908;-0.5731;-0.3005;0.947
7.495000;-0.6388;-0.5607;-0.5293;1.001
7.499000;-0.5720;-0.5426;-0.7241;1.071
7.504000;-0.5120;-0.5524;-0.9183;1.188
7.509000;-0.4915;-0.5702;-1.1456;1.371
7.514000;-0.4529;-0.5623;-1.3390;1.521
7.519000;-0.4749;-0.5638;-1.5013;1.673
7.524000;-0.4879;-0.5744;-1.6301;1.796
7.529000;-0.4912;-0.5550;-1.7545;1.905
7.539000;-0.5133;-0.6106;-1.8195;1.987
7.539000;-0.5105;-0.6522;-1.8325;2.011
7.543000;-0.4802;-0.6818;-1.8582;2.037
7.574000;-0.4552;-0.7111;-1.8632;2.046
7.574000;-0.4231;-0.7307;-1.8021;1.990
7.575000;-0.3639;-0.7092;-1.6942;1.872
7.575000;-0.2945;-0.6972;-1.5346;1.711
7.575000;-0.1832;-0.6638;-1.4166;1.575
7.576000;-0.0970;-0.6521;-1.3137;1.470
7.581000;-0.0073;-0.6794;-1.1685;1.352
7.587000;0.0642;-0.7171;-1.0049;1.236
7.588000;0.0864;-0.7776;-0.9038;1.195
7.593000;0.0658;-0.8277;-0.8079;1.159
7.600000;0.0091;-0.8392;-0.6405;1.056
7.603000;-0.1033;-0.8192;-0.5236;0.978
7.608000;-0.1712;-0.7900;-0.4043;0.904
7.612000;-0.2715;-0.7538;-0.3160;0.861
7.617000;-0.3179;-0.7421;-0.1655;0.824
7.622000;-0.3153;-0.7429;-0.0532;0.809
7.627000;-0.3515;-0.7711;0.0283;0.848
7.632000;-0.3376;-0.7740;0.0194;0.845
7.637000;-0.3229;-0.7829;0.0229;0.847
7.642000;-0.3379;-0.7619;-0.0210;0.834
7.650000;-0.3056;-0.7323;-0.1146;0.802
7.653000;-0.3260;-0.6774;-0.2150;0.782
7.656000;-0.3483;-0.6424;-0.3820;0.825
7.661000;-0.3629;-0.5863;-0.6060;0.918
7.684000;-0.4037;-0.5803;-0.7868;1.058
7.686000;-0.3898;-0.4973;-0.9604;1.150
7.686000;-0.4173;-0.4398;-1.1294;1.282
7.686000;-0.4148;-0.3858;-1.2628;1.384
7.687000;-0.3926;-0.3327;-1.2746;1.375
7.691000;-0.3917;-0.2829;-1.2153;1.308
7.695000;-0.3909;-0.2556;-1.1398;1.232
7.701000;-0.3710;-0.2463;-0.9931;1.088
7.704000;-0.3631;-0.2339;-0.8277;0.934
7.710000;-0.3600;-0.2475;-0.6865;0.814
7.718000;-0.3807;-0.2203;-0.5359;0.693
7.720000;-0.3942;-0.2198;-0.4308;0.624
7.725000;-0.4242;-0.1719;-0.3734;0.591
7.733000;-0.4610;-0.1798;-0.3398;0.600
7.741000;-0.4520;-0.1406;-0.3276;0.576
7.741000;-0.4685;-0.1045;-0.3438;0.590
7.744000;-0.4511;-0.0548;-0.3382;0.566
7.769000;-0.4642;0.0132;-0.3826;0.602
7.770000;-0.4409;0.0519;-0.4125;0.606
7.770000;-0.4292;0.1326;-0.4516;0.637
7.771000;-0.4171;0.1697;-0.4953;0.669
7.771000;-0.3863;0.2279;-0.5626;0.719
7.777000;-0.3559;0.2997;-0.5819;0.745
7.781000;-0.3357;0.3545;-0.6011;0.774
7.786000;-0.2922;0.4258;-0.6249;0.811
7.789000;-0.2686;0.4608;-0.6319;0.827
7.794000;-0.2767;0.4861;-0.6221;0.837
7.801000;-0.2705;0.5375;-0.5859;0.840
7.804000;-0.2622;0.5671;-0.5569;0.837
7.808000;-0.2753;0.5680;-0.5518;0.838
7.813000;-0.3216;0.5999;-0.5706;0.888
7.818000;-0.3457;0.6028;-0.5415;0.881
7.824000;-0.3670;0.5913;-0.5387;0.880
7.828000;-0.3902;0.6179;-0.5288;0.902
7.834000;-0.3940;0.6254;-0.4926;0.888
7.838000;-0.4120;0.6231;-0.4898;0.893
7.843000;-0.3867;0.6467;-0.4224;0.864
7.850000;-0.3591;0.6485;-0.3454;0.818
7.853000;-0.3006;0.6284;-0.2684;0.746
7.859000;-0.2589;0.6101;-0.2390;0.705
7.862000;-0.2103;0.5960;-0.1809;0.657
7.892000;-0.2122;0.5622;-0.0867;0.607
7.893000;-0.1447;0.5802;-0.0068;0.598
7.893000;-0.1181;0.5708;0.0758;0.588
7.893000;-0.1057;0.5293;0.1419;0.558
7.894000;-0.1196;0.4652;0.1438;0.501
7.894000;-0.1409;0.4289;0.1650;0.481
7.906000;-0.1693;0.3773;0.1508;0.440
7.907000;-0.1980;0.3681;0.0866;0.427
7.910000;-0.2364;0.3489;0.0538;0.425
7.911000;-0.2709;0.3031;0.0522;0.410
7.916000;-0.3015;0.2838;0.0506;0.417
7.921000;-0.3237;0.2457;0.1135;0.422
7.926000;-0.2899;0.2177;0.2240;0.426
7.933000;-0.2429;0.1707;0.4228;0.517
7.940000;-0.1490;0.1337;0.6404;0.671
7.941000;-0.0696;0.1635;0.8555;0.874
7.945000;-0.0418;0.1567;1.3453;1.355
7.962000;0.0217;0.1868;1.6819;1.692
7.963000;0.0979;0.2169;1.8801;1.895
7.963000;0.1917;0.1822;2.1530;2.169
7.966000;0.3009;0.0752;2.2807;2.302
7.973000;0.4054;-0.0991;2.2418;2.280
7.974000;0.4804;-0.1968;2.1441;2.206
7.980000;0.5182;-0.2079;1.9206;2.000
7.985000;0.4538;-0.1008;1.7385;1.800
7.990000;0.4179;0.0894;1.5377;1.596
7.995000;0.3980;0.2983;1.2466;1.342
7.999000;0.3956;0.4747;0.9652;1.146
8.003000;0.4170;0.6524;0.6932;1.039
8.010000;0.4658;0.7061;0.5163;0.991
8.013000;0.5939;0.7251;0.3266;0.993
8.018000;0.7604;0.6364;0.2503;1.023
8.024000;0.9892;0.4910;0.2584;1.134
8.029000;1.2264;0.3013;0.3385;1.307
8.034000;1.4111;0.0842;0.4595;1.486
8.043000;1.5766;-0.1556;0.6021;1.695
8.044000;1.6308;-0.3532;0.7758;1.840
8.068000;1.6401;-0.5568;1.0020;2.001
8.069000;1.6149;-0.7044;1.2926;2.185
8.069000;1.5243;-0.8328;1.5596;2.334
8.069000;1.3564;-0.9469;1.8079;2.451
8.069000;1.1211;-0.9739;2.0881;2.562
8.080000;0.8356;-0.9957;2.3789;2.711
8.081000;0.5526;-0.9712;2.6786;2.902
8.083000;0.2487;-0.9392;2.8799;3.039
8.088000;-0.0099;-0.9066;3.1006;3.230
8.093000;-0.2185;-0.8646;3.2121;3.334
8.099000;-0.3572;-0.8676;3.2390;3.372
8.103000;-0.4075;-0.8780;3.1433;3.289
8.108000;-0.4309;-0.9255;2.9566;3.128
8.112000;-0.4454;-0.9629;2.6649;2.868
8.118000;-0.4718;-1.0069;2.3089;2.563
8.122000;-0.4368;-0.9955;1.9102;2.198
8.127000;-0.4234;-0.9496;1.4854;1.813
8.133000;-0.4345;-0.8999;1.0463;1.447
8.141000;-0.4490;-0.8667;0.6260;1.160
8.141000;-0.4382;-0.7871;0.2505;0.935
8.147000;-0.4302;-0.7267;-0.0543;0.846
8.152000;-0.3832;-0.6707;-0.3723;0.858
8.156000;-0.3200;-0.6177;-0.5989;0.918
8.161000;-0.2341;-0.6463;-0.7915;1.048
8.202000;-0.1031;-0.6602;-1.0102;1.211
8.203000;0.0139;-0.6781;-1.1595;1.343
8.203000;0.1433;-0.6994;-1.2804;1.466
8.204000;0.2658;-0.7143;-1.3897;1.585
8.204000;0.3169;-0.6960;-1.4875;1.673
8.204000;0.3752;-0.6472;-1.5739;1.743
8.205000;0.3761;-0.5628;-1.5509;1.692
8.205000;0.3861;-0.4309;-1.5502;1.655
8.205000;0.4239;-0.3185;-1.5239;1.613
8.210000;0.4415;-0.2426;-1.4504;1.535
8.216000;0.5199;-0.1649;-1.4135;1.515
8.221000;0.5876;-0.1598;-1.2910;1.427
8.224000;0.6351;-0.1578;-1.2075;1.373
8.229000;0.6673;-0.2234;-1.1103;1.314
8.240000;0.6111;-0.2109;-1.0519;1.235
8.241000;0.5721;-0.1948;-0.9415;1.119
8.245000;0.5010;-0.1747;-0.8437;0.997
8.269000;0.4296;-0.1942;-0.7847;0.915
8.270000;0.3704;-0.2007;-0.7047;0.821
8.270000;0.3263;-0.2113;-0.6538;0.761
8.270000;0.2423;-0.2691;-0.6200;0.718
8.270000;0.1901;-0.2620;-0.5770;0.662
8.274000;0.1358;-0.3096;-0.5294;0.628
8.278000;0.0263;-0.3284;-0.5177;0.614
8.284000;-0.0501;-0.3141;-0.5157;0.606
8.288000;-0.1443;-0.3195;-0.4991;0.610
8.293000;-0.2303;-0.2922;-0.4680;0.598
8.297000;-0.2708;-0.2706;-0.4175;0.566
8.303000;-0.3500;-0.2645;-0.3953;0.591
8.308000;-0.4033;-0.2190;-0.4061;0.613
8.312000;-0.4620;-0.2299;-0.4404;0.678
8.317000;-0.4881;-0.2210;-0.4501;0.700
8.323000;-0.5007;-0.1897;-0.5191;0.746
8.328000;-0.5287;-0.1597;-0.6066;0.820
8.336000;-0.5239;-0.1308;-0.7127;0.894
8.343000;-0.5343;-0.0745;-0.8494;1.006
8.343000;-0.4928;-0.0381;-0.9736;1.092
8.348000;-0.4566;0.0387;-1.0809;1.174
8.386000;-0.3755;0.0893;-1.1642;1.227
8.387000;-0.3068;0.1187;-1.2379;1.281
8.387000;-0.2217;0.1364;-1.3213;1.347
8.387000;-0.1059;0.1930;-1.3903;1.408
8.387000;-0.0378;0.2575;-1.4429;1.466
8.388000;0.0134;0.3207;-1.5005;1.534
8.388000;0.0404;0.3613;-1.4844;1.528
8.388000;0.0957;0.4390;-1.4664;1.534
8.390000;0.1458;0.5107;-1.4298;1.525
8.395000;0.1762;0.5288;-1.3219;1.435
8.401000;0.2921;0.5315;-1.2050;1.349
8.406000;0.3431;0.5159;-1.0957;1.259
8.412000;0.4131;0.4921;-1.0061;1.194
8.415000;0.4093;0.4591;-0.8737;1.069
8.420000;0.3868;0.4626;-0.7369;0.952
8.425000;0.3358;0.4759;-0.5501;0.801
8.431000;0.2444;0.5009;-0.4114;0.693
8.435000;0.1771;0.4729;-0.3180;0.597
8.440000;0.1173;0.4490;-0.1983;0.505
8.444000;0.1012;0.3930;-0.1094;0.420
8.470000;0.0623;0.3408;-0.0371;0.348
8.471000;0.0052;0.3155;-0.0336;0.317
8.471000;-0.0725;0.3483;-0.0439;0.358
8.471000;-0.1565;0.4271;-0.0895;0.464
8.472000;-0.2235;0.4899;-0.1488;0.559
8.474000;-0.2452;0.5774;-0.2244;0.666
8.479000;-0.2386;0.6204;-0.3066;0.732
8.483000;-0.1896;0.6312;-0.4265;0.785
8.489000;-0.1391;0.6364;-0.5388;0.845
8.493000;-0.0683;0.6580;-0.6197;0.906
8.498000;-0.0297;0.6746;-0.6885;0.964
8.503000;0.0318;0.7033;-0.7286;1.013
8.508000;0.0279;0.7135;-0.7067;1.005
8.513000;0.0329;0.7485;-0.6397;0.985
8.518000;-0.0027;0.7365;-0.5395;0.913
8.523000;-0.0095;0.7184;-0.3921;0.818
8.528000;-0.0588;0.7034;-0.1877;0.730
8.536000;-0.0882;0.6534;0.0400;0.660
8.540000;-0.1596;0.5533;0.2435;0.625
8.543000;-0.1863;0.4725;0.4348;0.669
8.547000;-0.2306;0.4102;0.5949;0.759
8.580000;-0.3070;0.3712;0.7407;0.884
8.581000;-0.3060;0.3552;0.8149;0.940
8.581000;-0.2709;0.3142;0.8965;0.988
8.581000;-0.2114;0.3030;0.9427;1.012
8.582000;-0.0896;0.2950;0.9558;1.004
8.583000;0.0413;0.2618;0.9814;1.017
8.583000;0.1832;0.2556;1.0003;1.049
8.587000;0.3356;0.2770;1.0029;1.093
8.592000;0.4268;0.3138;1.0347;1.162
8.596000;0.4667;0.4141;1.0549;1.226
8.601000;0.4586;0.4986;1.0421;1.243
8.606000;0.3655;0.6966;1.0941;1.348
8.611000;0.3178;0.7687;1.0702;1.355
8.616000;0.2867;0.8299;0.7957;1.185
8.622000;0.3433;0.7823;0.7515;1.138
8.626000;0.4644;0.6126;0.6955;1.037
8.631000;0.6345;0.4217;0.6206;0.983
8.636000;0.6931;0.2293;0.5575;0.919
8.640000;0.6719;0.0786;0.4392;0.807
8.646000;0.4652;0.0988;0.3137;0.570
8.675000;0.1791;0.2464;0.1760;0.352
8.676000;-0.1076;0.4265;0.0571;0.444
8.676000;-0.3145;0.5197;-0.0144;0.608
8.676000;-0.4100;0.5581;-0.0128;0.693
8.677000;-0.3838;0.4774;0.0022;0.613
8.689000;-0.2272;0.3690;0.0351;0.435
8.689000;-0.0910;0.2380;0.1169;0.280
8.690000;0.1017;0.1868;0.2619;0.337
8.690000;0.2366;0.1864;0.4248;0.521
8.696000;0.3645;0.2245;0.5938;0.732
8.700000;0.4524;0.2696;0.7569;0.922
8.704000;0.5797;0.2877;0.9073;1.114
8.709000;0.7179;0.2023;1.0617;1.297
8.714000;0.8621;0.0917;1.1845;1.468
8.719000;0.9746;-0.0754;1.2879;1.617
8.723000;0.9837;-0.2133;1.3814;1.709
8.729000;0.9682;-0.3099;1.4700;1.787
8.734000;0.8142;-0.3129;1.5298;1.761
8.739000;0.6462;-0.3300;1.5727;1.732
8.743000;0.3868;-0.3283;1.5894;1.668
8.749000;0.1182;-0.3554;1.6563;1.698
8.756000;-0.1009;-0.4380;1.6444;1.705
8.758000;-0.3226;-0.5690;1.6064;1.734
8.764000;-0.4796;-0.6531;1.5351;1.736
8.783000;-0.6700;-0.7618;1.3973;1.727
8.784000;-0.8967;-0.8120;1.2672;1.752
8.784000;-1.0619;-0.8012;1.1423;1.753
8.784000;-1.1763;-0.7513;1.0014;1.718
8.788000;-1.2741;-0.7103;0.8636;1.695
8.792000;-1.2518;-0.6520;0.7362;1.592
8.797000;-1.1987;-0.5908;0.5857;1.459
8.803000;-1.0472;-0.5556;0.4433;1.266
8.807000;-0.9057;-0.5678;0.2756;1.104
8.812000;-0.7848;-0.5606;0.0969;0.969
8.818000;-0.6971;-0.5407;-0.0952;0.887
8.822000;-0.6524;-0.5463;-0.2866;0.898
8.827000;-0.6508;-0.5313;-0.4319;0.945
8.831000;-0.6537;-0.5004;-0.5839;1.009
8.836000;-0.6558;-0.5009;-0.6974;1.080
8.843000;-0.6515;-0.5132;-0.7700;1.132
8.846000;-0.5919;-0.5632;-0.8618;1.188
8.865000;-0.5526;-0.6314;-0.9131;1.240
8.866000;-0.5467;-0.7009;-0.9503;1.301
8.866000;-0.5547;-0.7736;-0.9975;1.379
8.867000;-0.5977;-0.7800;-1.0453;1.435
8.870000;-0.6590;-0.8060;-1.0267;1.462
8.875000;-0.6885;-0.8107;-0.9802;1.446
8.880000;-0.7294;-0.7604;-0.8844;1.376
8.886000;-0.7029;-0.7462;-0.7058;1.245
8.891000;-0.6451;-0.7780;-0.5592;1.155
8.895000;-0.5415;-0.8370;-0.3821;1.068
8.901000;-0.4855;-0.8781;-0.2344;1.030
8.906000;-0.4199;-0.8898;-0.1323;0.993
8.910000;-0.4096;-0.8387;0.0076;0.933
8.915000;-0.3564;-0.7899;0.1521;0.880
8.921000;-0.3301;-0.7676;0.2296;0.867
8.925000;-0.2973;-0.7341;0.3001;0.847
8.929000;-0.2509;-0.7106;0.3900;0.849
8.937000;-0.1958;-0.6954;0.4155;0.833
8.939000;-0.1463;-0.6883;0.4103;0.815
8.944000;-0.1426;-0.6920;0.4056;0.815
8.949000;-0.1102;-0.6871;0.3225;0.767
8.977000;-0.0891;-0.6548;0.2851;0.720
8.978000;-0.0838;-0.6519;0.2027;0.688
8.978000;-0.0843;-0.6236;0.1350;0.644
8.978000;-0.1001;-0.5863;0.0483;0.597
8.978000;-0.0875;-0.5616;-0.0381;0.570
8.981000;-0.1063;-0.5804;-0.1364;0.606
8.983000;-0.1369;-0.5542;-0.2249;0.614
8.989000;-0.1461;-0.5548;-0.2990;0.647
8.993000;-0.1843;-0.5080;-0.4446;0.700
8.998000;-0.1749;-0.4592;-0.5853;0.764
9.003000;-0.2143;-0.3989;-0.7329;0.861
9.008000;-0.2212;-0.3199;-0.8540;0.938
9.013000;-0.2416;-0.2769;-1.0155;1.080
9.018000;-0.2496;-0.2531;-1.1721;1.225
9.024000;-0.2216;-0.1862;-1.2689;1.301
9.028000;-0.1750;-0.1575;-1.3678;1.388
9.033000;-0.1578;-0.1287;-1.4428;1.457
9.038000;-0.1129;-0.1451;-1.4843;1.496
9.042000;-0.0549;-0.0896;-1.5544;1.558
9.049000;-0.0288;-0.0815;-1.6221;1.624
9.055000;-0.0271;-0.0370;-1.6804;1.681
9.058000;-0.0688;-0.0156;-1.6982;1.700
9.062000;-0.0823;0.0303;-1.6659;1.668
9.066000;-0.1035;0.0816;-1.5646;1.570
9.097000;-0.1465;0.1523;-1.5042;1.519
9.098000;-0.1424;0.1709;-1.4153;1.433
9.099000;-0.1890;0.2134;-1.2978;1.329
9.099000;-0.1718;0.2394;-1.2283;1.263
9.099000;-0.1479;0.2603;-1.1564;1.195
9.099000;-0.1676;0.2668;-1.0798;1.125
9.102000;-0.1711;0.2804;-0.9769;1.031
9.106000;-0.1892;0.2798;-0.8694;0.933
9.114000;-0.2335;0.2648;-0.7788;0.855
9.115000;-0.2894;0.2834;-0.6716;0.784
9.121000;-0.3374;0.3234;-0.5836;0.748
9.125000;-0.3509;0.3369;-0.4384;0.655
9.130000;-0.3656;0.3620;-0.3483;0.621
9.155000;-0.3958;0.3887;-0.3178;0.639
9.156000;-0.4369;0.4005;-0.2730;0.653
9.156000;-0.4771;0.4140;-0.2997;0.699
9.157000;-0.5049;0.4318;-0.3167;0.736
9.157000;-0.5634;0.4779;-0.3837;0.833
9.160000;-0.5981;0.4686;-0.3741;0.847
9.164000;-0.6188;0.4829;-0.4169;0.889
9.170000;-0.5971;0.5113;-0.4501;0.906
9.176000;-0.5571;0.4942;-0.4305;0.860
9.180000;-0.5159;0.4986;-0.3990;0.821
9.189000;-0.5000;0.5031;-0.3053;0.772
9.190000;-0.4686;0.5269;-0.1902;0.730
9.194000;-0.4861;0.5529;-0.0251;0.737
9.199000;-0.4661;0.5308;0.1902;0.732
9.204000;-0.4728;0.5228;0.3767;0.799
9.209000;-0.4654;0.4782;0.5417;0.859
9.213000;-0.4338;0.4303;0.6900;0.922
9.219000;-0.4089;0.3886;0.7453;0.935
9.223000;-0.3878;0.3505;0.7888;0.946
9.229000;-0.3635;0.3114;0.7944;0.927
9.233000;-0.3192;0.2907;0.7596;0.874
9.240000;-0.2932;0.3241;0.7418;0.861
9.243000;-0.2185;0.3164;0.7121;0.809
9.248000;-0.1117;0.2985;0.6731;0.745
9.255000;-0.0066;0.2755;0.6605;0.716
9.259000;0.0030;0.2738;0.6886;0.741
9.263000;-0.0160;0.3178;0.6879;0.758
9.268000;-0.1089;0.4068;0.7304;0.843
9.309000;-0.1437;0.5078;0.9615;1.097
9.311000;-0.1730;0.5029;0.8627;1.013
9.311000;-0.1352;0.4668;0.9959;1.108
9.311000;-0.0837;0.3129;1.1962;1.239
9.312000;-0.0141;0.1611;1.2267;1.237
9.312000;-0.0366;0.0329;1.3219;1.323
9.313000;-0.0721;-0.0066;1.3789;1.381
9.313000;-0.1367;0.0204;1.4598;1.466
9.320000;-0.1918;0.0762;1.5143;1.528
9.321000;-0.1986;0.1199;1.5545;1.572
9.321000;-0.1214;0.1421;1.5467;1.558
9.327000;-0.0351;0.1310;1.5127;1.519
9.331000;0.1054;0.0845;1.4475;1.454
9.337000;0.2277;0.0724;1.3750;1.396
9.341000;0.3552;0.0544;1.3549;1.402
9.346000;0.5071;0.0400;1.2961;1.392
9.350000;0.6624;-0.0110;1.2418;1.407
9.355000;0.8119;-0.0603;1.1822;1.435
9.360000;0.9916;-0.1702;1.1270;1.511
9.366000;1.1512;-0.2471;1.0546;1.581
9.392000;1.2667;-0.2859;0.9792;1.626
9.393000;1.3430;-0.4033;0.9317;1.684
9.393000;1.3638;-0.4365;0.9096;1.696
9.393000;1.3871;-0.5050;0.9511;1.756
9.393000;1.4210;-0.6061;1.0057;1.843
9.395000;1.3441;-0.6897;1.0903;1.863
9.400000;1.2818;-0.7969;1.2502;1.960
9.406000;1.1176;-0.8801;1.3947;1.992
9.410000;0.9722;-0.9303;1.5118;2.024
9.415000;0.8202;-0.9819;1.6546;2.092
9.420000;0.6999;-1.0092;1.7371;2.127
9.424000;0.5034;-1.0276;1.7478;2.089
9.430000;0.3524;-1.0423;1.7277;2.048
9.434000;0.2192;-1.0375;1.6795;1.986
9.439000;0.1035;-1.0352;1.5796;1.891
9.443000;0.0294;-1.0289;1.4044;1.741
9.449000;0.0030;-0.9949;1.2306;1.582
9.485000;-0.0540;-0.9597;1.0654;1.435
9.486000;-0.0783;-0.9304;0.8851;1.287
9.486000;-0.0763;-0.8785;0.7015;1.127
9.486000;-0.0726;-0.8038;0.5433;0.973
9.487000;-0.0058;-0.7035;0.3698;0.795
9.487000;0.0668;-0.6635;0.1569;0.685
9.487000;0.1600;-0.5776;-0.0191;0.600
9.488000;0.2579;-0.5314;-0.2157;0.629
9.492000;0.3543;-0.4761;-0.3665;0.698
9.498000;0.4193;-0.4182;-0.4596;0.750
9.504000;0.4754;-0.3854;-0.5625;0.831
9.507000;0.5257;-0.4036;-0.6274;0.913
9.512000;0.6073;-0.3834;-0.6500;0.969
9.517000;0.6422;-0.4133;-0.6543;1.006
9.522000;0.6818;-0.4738;-0.6333;1.044
9.527000;0.7094;-0.5025;-0.5752;1.042
9.532000;0.7090;-0.4852;-0.5253;1.007
9.538000;0.6827;-0.4653;-0.3929;0.915
9.541000;0.6354;-0.4431;-0.3021;0.831
9.546000;0.5834;-0.4044;-0.1860;0.734
9.551000;0.5003;-0.3667;-0.0585;0.623
9.570000;0.4432;-0.3640;0.0540;0.576
9.570000;0.3540;-0.3612;0.1400;0.525
9.571000;0.2154;-0.3367;0.2761;0.486
9.571000;0.0986;-0.3177;0.3955;0.517
9.576000;-0.0015;-0.3048;0.4554;0.548
9.581000;-0.0970;-0.3082;0.4657;0.567
9.586000;-0.1857;-0.2970;0.4552;0.574
9.591000;-0.2343;-0.2884;0.4192;0.560
9.595000;-0.2573;-0.2775;0.3315;0.503
9.601000;-0.3237;-0.2764;0.1778;0.461
9.606000;-0.3478;-0.2469;0.0035;0.426
9.611000;-0.4082;-0.2076;-0.1889;0.495
9.616000;-0.4142;-0.1846;-0.3708;0.586
9.622000;-0.4159;-0.1415;-0.5880;0.734
9.625000;-0.4080;-0.0709;-0.7616;0.867
9.630000;-0.4005;-0.0463;-0.9538;1.036
9.635000;-0.3862;0.0091;-1.0860;1.153
9.640000;-0.3864;0.0192;-1.2204;1.280
9.646000;-0.3891;0.0562;-1.2879;1.347
9.650000;-0.4106;0.0915;-1.3317;1.397
9.692000;-0.4245;0.1249;-1.3159;1.388
9.693000;-0.3924;0.1566;-1.3194;1.385
9.694000;-0.3906;0.2054;-1.2993;1.372
9.694000;-0.3738;0.2165;-1.2721;1.343
9.694000;-0.3017;0.2347;-1.2355;1.293
9.694000;-0.2418;0.2648;-1.2060;1.258
9.695000;-0.1848;0.2781;-1.2124;1.258
9.695000;-0.1215;0.3317;-1.1923;1.244
9.699000;-0.0758;0.3801;-1.1841;1.246
9.700000;-0.0168;0.4067;-1.2045;1.271
9.704000;0.0485;0.4639;-1.1935;1.281
9.709000;0.1178;0.4728;-1.1896;1.286
9.714000;0.2150;0.4910;-1.1760;1.292
9.718000;0.2662;0.5137;-1.1623;1.298
9.724000;0.2767;0.5384;-1.1748;1.322
9.728000;0.2873;0.5583;-1.2016;1.356
9.733000;0.2867;0.5593;-1.2117;1.365
9.740000;0.3232;0.5627;-1.2482;1.407
9.743000;0.3562;0.5546;-1.2753;1.436
9.748000;0.3570;0.5258;-1.2620;1.413
9.752000;0.3495;0.4884;-1.2587;1.395
9.788000;0.3360;0.4928;-1.2510;1.386
9.788000;0.2757;0.4650;-1.2318;1.345
9.789000;0.2379;0.4553;-1.1797;1.287
9.789000;0.2150;0.4444;-1.0683;1.177
9.789000;0.1975;0.4398;-0.9480;1.064
9.789000;0.1780;0.4792;-0.8402;0.983
9.790000;0.1497;0.4763;-0.7519;0.903
9.791000;0.1510;0.4981;-0.6687;0.847
9.796000;0.1178;0.5273;-0.5787;0.792
9.801000;0.1094;0.5682;-0.4815;0.753
9.808000;0.0807;0.6092;-0.4395;0.756
9.811000;0.0315;0.6521;-0.3687;0.750
9.816000;-0.0119;0.7063;-0.3481;0.787
9.822000;-0.0023;0.7427;-0.3629;0.827
9.827000;0.0007;0.7686;-0.3321;0.837
9.831000;0.0391;0.7670;-0.3415;0.841
9.835000;0.0816;0.7600;-0.3769;0.852
9.841000;0.0752;0.7352;-0.3760;0.829
9.846000;0.0554;0.7505;-0.3486;0.829
9.850000;0.0339;0.7291;-0.3042;0.791
9.859000;-0.0080;0.7096;-0.2452;0.751
9.887000;-0.0271;0.7278;-0.2052;0.757
9.887000;-0.0614;0.6765;-0.1342;0.692
9.888000;-0.0869;0.6320;-0.0845;0.643
9.888000;-0.1100;0.5992;0.0082;0.609
9.888000;-0.1299;0.5496;0.1056;0.574
9.888000;-0.1344;0.5353;0.1792;0.580
9.890000;-0.1376;0.5325;0.2648;0.610
9.895000;-0.1087;0.5194;0.3099;0.614
9.899000;-0.0671;0.5293;0.3337;0.629
9.904000;-0.0153;0.5409;0.2861;0.612
9.910000;0.0775;0.5112;0.2245;0.564
9.915000;0.2422;0.5287;0.1894;0.612
9.920000;0.3752;0.5098;0.1426;0.649
9.923000;0.4834;0.5265;0.1534;0.731
9.929000;0.5707;0.5550;0.1715;0.814
9.934000;0.6798;0.5616;0.2614;0.920
9.941000;0.7509;0.5298;0.2317;0.948
9.945000;0.8008;0.5599;0.2979;1.021
9.949000;0.8299;0.4988;0.5505;1.114
9.957000;0.8129;0.4396;0.5545;1.078
9.958000;0.7054;0.4421;0.5682;1.008
9.963000;0.5542;0.4656;0.5654;0.918
9.968000;0.4032;0.5316;0.4600;0.810
10.007000;0.2862;0.5920;0.3431;0.742
10.008000;0.2573;0.5924;0.2503;0.693
10.008000;0.3199;0.4686;0.1695;0.592
10.008000;0.4722;0.3669;0.1103;0.608
10.009000;0.6298;0.2280;0.0987;0.677
10.009000;0.6950;0.1856;0.1179;0.729
10.009000;0.7025;0.1324;0.1414;0.729
10.009000;0.5559;0.1945;0.1815;0.616
10.012000;0.3638;0.2928;0.2382;0.524
10.017000;0.1835;0.3911;0.2206;0.485
10.022000;0.0209;0.4513;0.2317;0.508
10.026000;-0.0583;0.5164;0.1399;0.538
10.032000;-0.0675;0.4698;-0.0164;0.475
10.036000;-0.0332;0.4096;-0.1132;0.426
10.041000;0.0297;0.4060;-0.2127;0.459
10.047000;0.1360;0.4062;-0.3318;0.542
10.052000;0.2021;0.4656;-0.4324;0.667
10.089000;0.3384;0.5009;-0.4596;0.759
10.090000;0.4254;0.5723;-0.4616;0.849
10.090000;0.5178;0.6299;-0.4336;0.924
10.090000;0.6376;0.6356;-0.4284;0.997
10.091000;0.7294;0.5612;-0.3553;0.987
10.091000;0.7957;0.4686;-0.2381;0.954
10.091000;0.8195;0.3537;-0.0699;0.895
10.091000;0.7681;0.2394;0.1663;0.822
10.101000;0.6610;0.1499;0.4466;0.812
10.101000;0.4922;0.0171;0.7449;0.893
10.106000;0.3100;-0.0853;1.0567;1.105
10.111000;0.0907;-0.2226;1.2962;1.318
10.115000;-0.1367;-0.3641;1.4661;1.517
10.120000;-0.3621;-0.4533;1.6718;1.770
10.125000;-0.5940;-0.5147;1.8180;1.981
10.130000;-0.7916;-0.5661;1.9027;2.137
10.135000;-0.9263;-0.5677;1.9597;2.241
10.140000;-1.0684;-0.6043;1.9678;2.319
10.145000;-1.1227;-0.6330;1.8315;2.240
10.149000;-1.2282;-0.5874;1.6421;2.133
10.158000;-1.2727;-0.5559;1.2991;1.902
10.160000;-1.2731;-0.4712;0.9366;1.649
10.164000;-1.2152;-0.4115;0.5541;1.397
10.168000;-1.1691;-0.3809;0.1921;1.245
10.211000;-1.1096;-0.2926;-0.1447;1.157
10.212000;-1.0116;-0.2486;-0.3995;1.116
10.212000;-0.9670;-0.2124;-0.5749;1.145
10.212000;-0.8426;-0.1813;-0.6497;1.079
10.213000;-0.7802;-0.2314;-0.6766;1.058
10.213000;-0.7366;-0.2547;-0.6916;1.042
10.213000;-0.6996;-0.3037;-0.6854;1.025
10.213000;-0.7329;-0.3520;-0.6435;1.037
10.214000;-0.7858;-0.3897;-0.6164;1.072
10.217000;-0.8643;-0.4141;-0.5848;1.123
10.223000;-0.8934;-0.4325;-0.5466;1.133
10.228000;-0.8818;-0.4879;-0.5423;1.144
10.232000;-0.8647;-0.5441;-0.5312;1.152
10.241000;-0.7893;-0.5937;-0.5328;1.122
10.244000;-0.6943;-0.6462;-0.4823;1.064
10.249000;-0.6298;-0.6727;-0.4805;1.039
10.252000;-0.5271;-0.7017;-0.4005;0.965
10.289000;-0.4458;-0.6929;-0.3428;0.892
10.290000;-0.3887;-0.6965;-0.2452;0.834
10.290000;-0.3219;-0.6767;-0.1339;0.761
10.290000;-0.2769;-0.6793;-0.0186;0.734
10.290000;-0.2658;-0.6543;0.1250;0.717
10.291000;-0.2382;-0.6282;0.2274;0.709
10.291000;-0.2706;-0.5747;0.3676;0.734
10.291000;-0.3288;-0.5423;0.4836;0.797
10.297000;-0.3716;-0.5143;0.5826;0.861
10.301000;-0.4511;-0.4915;0.6769;0.950
10.307000;-0.5237;-0.4859;0.7473;1.034
10.311000;-0.5960;-0.5076;0.7630;1.093
10.316000;-0.6222;-0.5306;0.7503;1.110
10.321000;-0.6620;-0.5338;0.6736;1.085
10.326000;-0.6463;-0.5415;0.5881;1.028
10.331000;-0.6356;-0.5082;0.4219;0.917
10.336000;-0.5776;-0.4338;0.2040;0.751
10.342000;-0.5425;-0.3902;-0.0130;0.668
10.345000;-0.4734;-0.3222;-0.2340;0.619
10.350000;-0.4283;-0.2582;-0.4613;0.680
10.390000;-0.3787;-0.1908;-0.6210;0.752
10.390000;-0.3562;-0.1485;-0.8065;0.894
10.391000;-0.3225;-0.0999;-0.9913;1.047
10.391000;-0.2898;-0.0543;-1.1567;1.194
10.391000;-0.3055;-0.0211;-1.2810;1.317
10.391000;-0.3337;0.0289;-1.4053;1.445
10.392000;-0.3811;0.0646;-1.5270;1.575
10.392000;-0.4834;0.0601;-1.6487;1.719
10.394000;-0.5875;0.0968;-1.6868;1.789
10.399000;-0.6911;0.1105;-1.6917;1.831
10.403000;-0.7348;0.0867;-1.7208;1.873
10.409000;-0.8022;0.1046;-1.7238;1.904
10.414000;-0.8240;0.1233;-1.7057;1.898
10.418000;-0.7835;0.1211;-1.7236;1.897
10.424000;-0.7192;0.1651;-1.6820;1.837
10.429000;-0.6548;0.2313;-1.6646;1.804
10.434000;-0.5789;0.3006;-1.5805;1.710
10.438000;-0.4701;0.3964;-1.4441;1.570
10.443000;-0.3459;0.5235;-1.3294;1.470
10.449000;-0.1798;0.6071;-1.2410;1.393
10.494000;-0.0223;0.6686;-1.1573;1.337
10.495000;0.0863;0.7270;-1.0830;1.307
10.495000;0.1866;0.7915;-1.0133;1.299
10.495000;0.2812;0.8166;-1.0101;1.329
10.496000;0.3128;0.8239;-0.9995;1.333
10.496000;0.3058;0.8588;-0.9693;1.331
10.496000;0.2939;0.8473;-0.9509;1.307
10.496000;0.2321;0.8422;-0.9513;1.292
10.497000;0.1685;0.8149;-0.9420;1.257
10.498000;0.0888;0.7897;-0.9087;1.207
10.502000;-0.0088;0.7594;-0.9136;1.188
10.506000;-0.0812;0.7503;-0.8323;1.123
10.512000;-0.1309;0.7241;-0.7129;1.025
10.516000;-0.1797;0.7360;-0.6199;0.979
10.521000;-0.2397;0.7047;-0.5245;0.911
10.528000;-0.2966;0.6538;-0.4244;0.834
10.531000;-0.3409;0.6049;-0.3266;0.767
10.536000;-0.3967;0.5720;-0.2264;0.732
10.542000;-0.4234;0.5455;-0.1045;0.698
10.546000;-0.4235;0.5182;-0.0422;0.671
10.551000;-0.4619;0.5543;-0.0154;0.722
10.562000;-0.4145;0.5607;-0.0075;0.697
10.563000;-0.3937;0.5542;0.0199;0.680
10.566000;-0.2900;0.5616;0.0475;0.634
10.574000;-0.1586;0.5709;0.1421;0.609
10.643000;-0.0208;0.5988;0.2320;0.643
10.644000;0.1138;0.5860;0.3148;0.675
10.644000;0.1713;0.6087;0.3760;0.736
10.645000;0.2242;0.5666;0.4708;0.770
10.645000;0.1847;0.5604;0.5678;0.819
10.645000;0.1250;0.5969;0.6433;0.886
10.645000;0.0458;0.6281;0.7379;0.970
10.646000;-0.0290;0.5780;0.8467;1.026
10.646000;-0.1067;0.5369;0.7499;0.928
10.646000;-0.1616;0.5077;0.6820;0.865
10.646000;-0.1327;0.4097;0.7479;0.863
10.647000;-0.0690;0.3223;0.7250;0.796
10.647000;0.0141;0.2169;0.7377;0.769
10.647000;0.0227;0.1661;0.7953;0.813
10.647000;0.0382;0.1868;0.8904;0.911
10.651000;0.0660;0.2124;1.0346;1.058
10.654000;0.0926;0.3100;1.1969;1.240
10.661000;0.1213;0.3699;1.4152;1.468
10.664000;0.2625;0.4257;1.6656;1.739
10.668000;0.4070;0.3720;1.8238;1.905
10.675000;0.6025;0.3477;2.0810;2.194
10.679000;0.8344;0.2905;2.2747;2.440
10.683000;1.0694;0.1885;2.5102;2.735
10.688000;1.2840;0.0889;2.7039;2.995
10.708000;1.3882;-0.0778;2.8655;3.185
10.709000;1.4684;-0.2045;2.9666;3.316
10.709000;1.4676;-0.3464;3.0479;3.401
10.710000;1.4050;-0.5352;3.0835;3.431
10.713000;1.2682;-0.6822;3.0494;3.372
10.717000;1.1214;-0.8262;2.9865;3.295
10.722000;0.9335;-0.9383;2.9116;3.198
10.727000;0.7016;-1.0288;2.7891;3.054
10.732000;0.4692;-1.0735;2.7026;2.946
10.737000;0.2405;-1.1161;2.7120;2.943
10.744000;0.0657;-1.1687;2.7074;2.950
10.748000;-0.0561;-1.1965;2.6890;2.944
10.751000;-0.1118;-1.2300;2.6566;2.930
10.790000;-0.0839;-1.2641;2.5800;2.874
10.791000;-0.0578;-1.2817;2.4757;2.788
10.792000;0.0180;-1.2739;2.3249;2.651
10.792000;0.0547;-1.2218;2.1061;2.435
10.793000;0.1182;-1.1753;1.8718;2.213
10.793000;0.2104;-1.1008;1.6078;1.960
10.793000;0.2970;-1.0148;1.3330;1.701
10.793000;0.4086;-0.9620;1.0281;1.466
10.795000;0.5450;-0.8868;0.8006;1.313
10.801000;0.6753;-0.8175;0.5640;1.201
10.805000;0.7619;-0.7702;0.4044;1.156
10.810000;0.8415;-0.7205;0.2521;1.136
10.815000;0.9193;-0.6682;0.1382;1.145
10.820000;0.9770;-0.6107;0.0290;1.153
10.826000;1.0339;-0.5886;-0.0778;1.192
10.831000;1.0927;-0.5612;-0.1440;1.237
10.835000;1.1227;-0.5902;-0.2367;1.290
10.841000;1.1406;-0.5945;-0.3319;1.328
10.845000;1.1177;-0.5572;-0.4058;1.313
10.849000;1.0637;-0.5237;-0.5348;1.301
10.855000;1.0364;-0.5038;-0.6281;1.312
10.860000;0.9837;-0.4135;-0.7216;1.288
10.865000;0.9176;-0.4037;-0.8607;1.321
10.869000;0.8693;-0.3352;-0.9092;1.302
10.904000;0.8464;-0.2943;-0.9675;1.319
10.905000;0.8130;-0.2138;-0.9521;1.270
10.906000;0.7909;-0.1658;-0.9418;1.241
10.906000;0.7661;-0.1386;-0.8959;1.187
10.906000;0.7363;-0.1374;-0.8383;1.124
10.906000;0.6892;-0.1436;-0.8427;1.098
10.906000;0.6414;-0.1196;-0.8349;1.060
10.911000;0.5657;-0.1324;-0.8412;1.022
10.915000;0.4571;-0.1202;-0.8328;0.958
10.918000;0.3293;-0.1337;-0.8596;0.930
10.923000;0.1487;-0.1251;-0.9719;0.991
10.929000;-0.0206;-0.1211;-1.0715;1.078
10.933000;-0.1525;-0.1000;-1.1416;1.156
10.938000;-0.2883;-0.1358;-1.2422;1.282
10.944000;-0.3685;-0.0803;-1.3612;1.413
10.948000;-0.4149;-0.1031;-1.5107;1.570
10.952000;-0.4485;-0.0462;-1.6523;1.713
10.989000;-0.4625;-0.0143;-1.8005;1.859
10.990000;-0.4660;-0.0191;-1.9126;1.969
10.990000;-0.3990;0.0118;-2.0507;2.089
10.990000;-0.3453;0.0761;-2.1360;2.165
10.991000;-0.2738;0.1384;-2.2118;2.233
10.991000;-0.2253;0.1964;-2.2591;2.279
10.991000;-0.1136;0.2866;-2.2229;2.244
10.992000;-0.0341;0.3563;-2.1776;2.207
10.996000;0.0760;0.3963;-2.1423;2.180
11.002000;0.1406;0.4376;-2.0334;2.085
11.008000;0.1887;0.4707;-1.9131;1.979
11.011000;0.2253;0.4788;-1.7814;1.858
11.016000;0.2603;0.4858;-1.6765;1.765
11.021000;0.2485;0.4821;-1.6199;1.708
11.028000;0.1977;0.4913;-1.5493;1.637
11.032000;0.1557;0.4610;-1.4697;1.548
11.035000;0.1202;0.4319;-1.3642;1.436
11.045000;0.1222;0.4135;-1.3308;1.399
11.046000;0.0726;0.3793;-1.2787;1.336
11.051000;0.0025;0.3700;-1.1887;1.245
11.055000;-0.0098;0.3660;-1.0583;1.120
11.095000;-0.0055;0.3721;-0.9330;1.005
11.096000;-0.0064;0.3904;-0.7889;0.880
11.096000;-0.0008;0.3777;-0.6688;0.768
11.097000;0.0113;0.3480;-0.5846;0.680
11.097000;0.0180;0.3373;-0.4622;0.572
11.098000;0.0120;0.3738;-0.3708;0.527
11.098000;0.0224;0.4194;-0.2867;0.508
11.098000;0.0065;0.4713;-0.1641;0.499
11.100000;-0.0134;0.5036;-0.0511;0.506
11.104000;-0.0247;0.4965;-0.0001;0.497
11.111000;-0.0025;0.4951;0.0155;0.495
11.121000;0.0366;0.5091;-0.0284;0.511
11.121000;0.0735;0.5117;-0.0979;0.526
11.124000;0.1296;0.5293;-0.2242;0.589
11.129000;0.1303;0.5552;-0.3715;0.681
11.134000;0.1345;0.5968;-0.4944;0.787
11.139000;0.1127;0.6424;-0.5858;0.877
11.145000;0.1049;0.6897;-0.6650;0.964
11.150000;0.1208;0.7124;-0.7032;1.008
11.154000;0.1336;0.7083;-0.7675;1.053
11.159000;0.1428;0.7083;-0.7909;1.071
11.191000;0.1169;0.6816;-0.7830;1.045
11.192000;0.1248;0.6735;-0.7153;0.990
11.192000;0.1184;0.6697;-0.6595;0.947
11.193000;0.1000;0.6562;-0.5654;0.872
11.193000;0.1345;0.6065;-0.3973;0.737
11.193000;0.1288;0.5472;-0.2103;0.600
11.193000;0.2051;0.4684;-0.0114;0.511
11.197000;0.2926;0.3752;0.1586;0.502
11.203000;0.3754;0.2817;0.3883;0.609
11.208000;0.4689;0.2020;0.5653;0.762
11.218000;0.5353;0.1644;0.7448;0.932
11.219000;0.5804;0.1093;0.8886;1.067
11.222000;0.5972;0.1178;1.0134;1.182
11.228000;0.5883;0.1492;1.0931;1.250
11.232000;0.5823;0.1793;1.1706;1.320
11.236000;0.5364;0.2440;1.2152;1.351
11.245000;0.4701;0.3096;1.1574;1.287
11.247000;0.3686;0.3930;1.1122;1.236
11.251000;0.2841;0.4960;1.0247;1.173
11.256000;0.2588;0.5496;0.8377;1.035
11.296000;0.2340;0.5540;0.7135;0.933
11.297000;0.2962;0.5144;0.5518;0.810
11.297000;0.3673;0.5029;0.3809;0.730
11.297000;0.3910;0.4391;0.2555;0.641
11.298000;0.4051;0.5025;-0.0205;0.646
11.298000;0.3951;0.5480;0.0331;0.676
11.298000;0.3801;0.5948;-0.0429;0.707
11.299000;0.3817;0.6031;-0.0768;0.718
11.300000;0.4159;0.5469;-0.0423;0.688
11.305000;0.4536;0.4679;-0.0044;0.652
11.310000;0.4374;0.4170;0.0892;0.611
11.314000;0.4757;0.2847;0.2264;0.599
11.320000;0.4805;0.2098;0.4024;0.661
11.326000;0.4995;0.1018;0.6313;0.811
11.330000;0.5414;-0.0085;0.8513;1.009
11.335000;0.5559;-0.1332;1.1794;1.311
11.340000;0.5605;-0.2606;1.4843;1.608
11.344000;0.5303;-0.3919;1.7042;1.827
11.350000;0.4270;-0.4987;1.9493;2.057
11.354000;0.4184;-0.5560;2.1747;2.283
11.361000;0.3848;-0.5574;2.3279;2.424
11.364000;0.4195;-0.6023;2.3305;2.443
11.368000;0.3783;-0.6502;2.3264;2.445
11.374000;0.3951;-0.6709;2.2105;2.344
11.409000;0.3687;-0.7458;2.0571;2.219
11.409000;0.2700;-0.6914;1.8784;2.020
11.410000;0.1289;-0.6725;1.6528;1.789
11.410000;0.0049;-0.5646;1.4329;1.540
11.410000;-0.1118;-0.4463;1.3595;1.435
11.410000;-0.2340;-0.3632;1.3035;1.373
11.411000;-0.3386;-0.3630;1.3006;1.392
11.413000;-0.4234;-0.4123;1.2744;1.405
11.417000;-0.5384;-0.4654;1.1579;1.359
11.423000;-0.6566;-0.4963;1.0015;1.296
11.430000;-0.7890;-0.4974;0.8672;1.274
11.432000;-0.8917;-0.4211;0.7335;1.229
11.437000;-0.9814;-0.4200;0.5932;1.221
11.445000;-1.0005;-0.3839;0.5225;1.192
11.450000;-0.9614;-0.3630;0.4905;1.139
11.454000;-0.8984;-0.3668;0.4587;1.073
11.457000;-0.7925;-0.3598;0.4416;0.976
11.490000;-0.6823;-0.4014;0.3986;0.886
11.491000;-0.5727;-0.4131;0.3799;0.802
11.491000;-0.4782;-0.4022;0.3066;0.696
11.491000;-0.4468;-0.3451;0.2053;0.601
11.492000;-0.4882;-0.3182;0.0400;0.584
11.492000;-0.4806;-0.3023;-0.1389;0.585
11.499000;-0.5007;-0.2611;-0.3197;0.649
11.499000;-0.4914;-0.2608;-0.4618;0.723
11.501000;-0.5298;-0.2796;-0.6157;0.859
11.506000;-0.6160;-0.3263;-0.7337;1.012
11.513000;-0.7144;-0.3335;-0.7490;1.087
11.516000;-0.7863;-0.3655;-0.6834;1.104
11.521000;-0.8743;-0.4053;-0.5562;1.113
11.526000;-0.9392;-0.4382;-0.4082;1.114
11.532000;-0.9521;-0.5004;-0.1940;1.093
11.535000;-0.9645;-0.5608;0.0315;1.116
11.540000;-0.9641;-0.5721;0.2371;1.146
11.546000;-0.9449;-0.6037;0.3920;1.188
11.550000;-0.9421;-0.5868;0.5607;1.244
11.555000;-0.8930;-0.5887;0.7003;1.278
11.590000;-0.8261;-0.5909;0.7752;1.278
11.591000;-0.7439;-0.5626;0.8691;1.275
11.591000;-0.6371;-0.5378;0.9034;1.229
11.591000;-0.5014;-0.5052;0.8639;1.119
11.591000;-0.4159;-0.4436;0.7701;0.981
11.592000;-0.2926;-0.4227;0.6101;0.798
11.594000;-0.2444;-0.3397;0.4509;0.615
11.595000;-0.1598;-0.2997;0.2162;0.403
11.599000;-0.1398;-0.2522;-0.0463;0.292
11.604000;-0.1445;-0.2041;-0.3150;0.402
11.609000;-0.1329;-0.1788;-0.6140;0.653
11.614000;-0.1294;-0.1566;-0.9052;0.928
11.618000;-0.1696;-0.1895;-1.1433;1.171
11.624000;-0.2388;-0.2481;-1.3335;1.377
11.630000;-0.2891;-0.2603;-1.4592;1.510
11.634000;-0.3561;-0.2997;-1.5900;1.657
11.638000;-0.4512;-0.3327;-1.6901;1.781
11.646000;-0.5217;-0.3563;-1.7717;1.881
11.651000;-0.6032;-0.3943;-1.7965;1.936
11.695000;-0.6599;-0.4108;-1.7362;1.902
11.696000;-0.6774;-0.4393;-1.7054;1.887
11.697000;-0.6796;-0.4563;-1.6346;1.828
11.697000;-0.6665;-0.4642;-1.4810;1.689
11.697000;-0.6599;-0.4468;-1.3161;1.539
11.698000;-0.5954;-0.4453;-1.1421;1.363
11.698000;-0.5472;-0.4123;-1.0164;1.226
11.698000;-0.4917;-0.3888;-0.8836;1.083
11.698000;-0.4888;-0.3608;-0.8059;1.009
11.698000;-0.5054;-0.3430;-0.6994;0.929
11.702000;-0.5203;-0.2687;-0.6715;0.891
11.707000;-0.4974;-0.2264;-0.6745;0.868
11.712000;-0.5108;-0.1970;-0.6748;0.869
11.716000;-0.4980;-0.1780;-0.6939;0.872
11.721000;-0.4330;-0.1981;-0.7270;0.869
11.726000;-0.4281;-0.1926;-0.7838;0.914
11.731000;-0.4334;-0.1971;-0.8308;0.958
11.736000;-0.5064;-0.1707;-0.8632;1.015
11.741000;-0.5133;-0.1160;-0.8525;1.002
11.747000;-0.5642;-0.0927;-0.8154;0.996
11.751000;-0.5755;-0.0528;-0.7759;0.967
11.756000;-0.6045;-0.0350;-0.7242;0.944
11.763000;-0.6274;-0.0296;-0.6820;0.927
11.766000;-0.6246;0.0424;-0.6661;0.914
11.770000;-0.6226;0.0542;-0.6547;0.905
11.775000;-0.6425;0.0968;-0.6576;0.925
11.805000;-0.6771;0.1412;-0.6915;0.978
11.806000;-0.6829;0.1808;-0.7133;1.004
11.806000;-0.6954;0.2560;-0.7398;1.047
11.806000;-0.6880;0.3099;-0.7330;1.052
11.806000;-0.6918;0.3902;-0.7430;1.088
11.806000;-0.6659;0.4444;-0.7674;1.109
11.812000;-0.6369;0.5155;-0.7704;1.125
11.814000;-0.5738;0.5534;-0.7879;1.121
11.819000;-0.5006;0.5894;-0.7984;1.111
11.824000;-0.4650;0.6352;-0.7731;1.103
11.829000;-0.3999;0.6957;-0.7242;1.081
11.834000;-0.3647;0.6992;-0.7041;1.057
11.839000;-0.3306;0.7220;-0.6627;1.034
11.846000;-0.3433;0.7257;-0.6143;1.011
11.848000;-0.3767;0.7128;-0.5253;0.962
11.853000;-0.4194;0.7139;-0.4937;0.964
11.859000;-0.4691;0.6953;-0.3974;0.928
11.884000;-0.5047;0.6784;-0.3273;0.907
11.884000;-0.4978;0.6604;-0.2903;0.876
11.885000;-0.5226;0.6389;-0.2745;0.870
11.885000;-0.5000;0.6092;-0.2368;0.823
11.885000;-0.4880;0.5928;-0.1939;0.792
11.889000;-0.4532;0.6087;-0.1770;0.779
11.894000;-0.3864;0.6020;-0.1406;0.729
11.898000;-0.2900;0.6203;-0.0990;0.692
11.903000;-0.1544;0.6066;-0.0594;0.629
11.907000;-0.0368;0.5755;0.0281;0.577
11.914000;0.0582;0.5557;0.1183;0.571
11.917000;0.1291;0.5733;0.2205;0.628
11.922000;0.1456;0.6624;0.3060;0.744
11.928000;0.1061;0.7389;0.4824;0.889
11.932000;0.0849;0.8076;0.6491;1.040
11.938000;0.0942;0.7656;0.7394;1.069
11.942000;0.0907;0.6965;0.6626;0.966
11.947000;0.1456;0.5671;0.8871;1.063
11.952000;0.2100;0.4187;1.0374;1.138
11.957000;0.2312;0.3276;0.9964;1.074
11.965000;0.2136;0.2488;1.0607;1.110
11.968000;0.1407;0.2371;1.0411;1.077
11.972000;0.0533;0.2356;0.9952;1.024
11.977000;-0.0180;0.2585;0.9778;1.012
12.017000;-0.0287;0.2732;0.9362;0.976
12.018000;-0.0012;0.2345;0.9418;0.971
12.018000;0.0954;0.1502;0.9372;0.954
12.019000;0.2441;0.0542;0.9485;0.981
12.019000;0.4428;-0.0770;1.0257;1.120
12.019000;0.6993;-0.2169;1.0921;1.315
12.019000;0.8996;-0.3174;1.1478;1.492
12.019000;1.1448;-0.4074;1.2523;1.745
12.021000;1.4072;-0.4916;1.3269;1.996
12.025000;1.6249;-0.6293;1.4023;2.237
12.031000;1.7200;-0.7657;1.4620;2.384
12.035000;1.7122;-0.8910;1.5632;2.484
12.040000;1.5379;-0.9936;1.6153;2.442
12.047000;1.2222;-1.0473;1.7185;2.355
12.049000;0.8735;-1.0787;1.9088;2.360
12.054000;0.5209;-1.0506;2.2009;2.494
12.059000;0.2476;-1.0663;2.4729;2.704
12.088000;-0.0283;-1.1346;2.7542;2.979
12.089000;-0.1733;-1.1584;2.9184;3.145
12.090000;-0.2956;-1.2182;3.0619;3.309
12.090000;-0.3409;-1.2791;3.1085;3.379
12.090000;-0.3350;-1.2924;3.0517;3.331
12.091000;-0.2957;-1.3040;2.8966;3.190
12.093000;-0.2154;-1.2501;2.6171;2.908
12.100000;-0.1535;-1.1857;2.2613;2.558
12.104000;-0.0727;-1.0769;1.8218;2.118
12.109000;0.0353;-0.9301;1.3725;1.658
12.114000;0.1511;-0.7465;0.9251;1.198
12.118000;0.2580;-0.5970;0.5173;0.831
12.124000;0.3640;-0.5016;0.1967;0.650
12.128000;0.4339;-0.4329;-0.1115;0.623
12.133000;0.4908;-0.4204;-0.3575;0.739
12.137000;0.5259;-0.4659;-0.5823;0.912
12.143000;0.5265;-0.5584;-0.6906;1.032
12.148000;0.5440;-0.6281;-0.7784;1.139
12.153000;0.4884;-0.6815;-0.8078;1.164
12.158000;0.3580;-0.7064;-0.7956;1.123
12.164000;0.2277;-0.7313;-0.6799;1.024
12.167000;0.1263;-0.7351;-0.5371;0.919
12.172000;-0.0179;-0.7467;-0.3122;0.810
12.177000;-0.0426;-0.7619;-0.0816;0.767
12.218000;-0.0724;-0.7652;0.1313;0.780
12.220000;-0.0838;-0.7788;0.3266;0.849
12.220000;-0.1537;-0.7154;0.4691;0.869
12.221000;-0.1818;-0.6613;0.6209;0.925
12.221000;-0.2236;-0.5393;0.8374;1.021
12.221000;-0.2337;-0.4500;0.9801;1.104
12.221000;-0.2145;-0.3565;1.0854;1.162
12.222000;-0.1613;-0.3456;1.0769;1.142
12.222000;-0.0739;-0.3417;0.9910;1.051
12.226000;0.0334;-0.3401;0.8230;0.891
12.231000;0.1029;-0.3145;0.5896;0.676
12.236000;0.1417;-0.2455;0.3173;0.425
12.241000;0.1250;-0.1808;-0.0538;0.226
12.248000;0.0550;-0.1147;-0.4091;0.428
12.251000;-0.0184;-0.0438;-0.7847;0.786
12.257000;-0.1026;-0.0011;-1.1329;1.138
12.289000;-0.1546;0.0050;-1.4232;1.432
12.290000;-0.2295;0.0445;-1.7249;1.741
12.290000;-0.2842;0.0486;-1.9785;1.999
12.290000;-0.3278;0.0752;-2.1366;2.163
12.291000;-0.3599;0.0748;-2.2543;2.284
12.291000;-0.3662;0.0951;-2.3198;2.350
12.291000;-0.3822;0.1339;-2.3188;2.354
12.297000;-0.3841;0.2080;-2.2635;2.305
12.300000;-0.3241;0.2480;-2.1538;2.192
12.305000;-0.2310;0.2895;-2.0329;2.066
12.309000;-0.1576;0.3368;-1.8861;1.922
12.314000;-0.0367;0.3754;-1.7517;1.792
12.319000;0.0955;0.4214;-1.6176;1.674
12.324000;0.2202;0.4126;-1.4766;1.549
12.329000;0.3204;0.4515;-1.3906;1.497
12.335000;0.4394;0.4423;-1.2593;1.405
12.339000;0.5440;0.4231;-1.2045;1.388
12.344000;0.6200;0.4035;-1.1735;1.387
12.349000;0.6007;0.3739;-1.1973;1.391
12.353000;0.5750;0.3611;-1.2403;1.414
12.357000;0.4755;0.3484;-1.2737;1.403
12.365000;0.3670;0.3436;-1.2953;1.389
12.369000;0.2827;0.2920;-1.3124;1.374
12.373000;0.2129;0.2584;-1.3012;1.344
12.410000;0.1556;0.2022;-1.2642;1.290
12.411000;0.1180;0.1667;-1.2564;1.273
12.411000;0.0667;0.1471;-1.1846;1.196
12.411000;0.0282;0.1313;-1.1014;1.110
12.412000;-0.0096;0.1457;-0.9399;0.951
12.412000;-0.0683;0.1443;-0.8004;0.816
12.412000;-0.1214;0.1297;-0.7045;0.727
12.412000;-0.1714;0.1468;-0.5205;0.567
12.417000;-0.2160;0.1618;-0.3392;0.433
12.422000;-0.2556;0.1935;-0.1916;0.373
12.427000;-0.2780;0.1986;-0.0607;0.347
12.433000;-0.3050;0.2099;0.0750;0.378
12.437000;-0.3363;0.2129;0.1631;0.430
12.442000;-0.3436;0.2624;0.1870;0.471
12.449000;-0.3433;0.2888;0.1923;0.488
12.452000;-0.3142;0.2945;0.1382;0.452
12.457000;-0.3020;0.3228;0.0775;0.449
12.501000;-0.2543;0.3740;0.0291;0.453
12.502000;-0.2331;0.4218;-0.0356;0.483
12.502000;-0.1835;0.4425;-0.1264;0.495
12.502000;-0.1673;0.4770;-0.1953;0.542
12.503000;-0.1631;0.5233;-0.2379;0.597
12.503000;-0.1590;0.5528;-0.2636;0.633
12.503000;-0.1522;0.6015;-0.2631;0.674
12.503000;-0.1498;0.6053;-0.2579;0.675
12.503000;-0.1398;0.6165;-0.2433;0.677
12.506000;-0.1432;0.6352;-0.1906;0.678
12.510000;-0.1386;0.6495;-0.1261;0.676
12.515000;-0.1358;0.6758;-0.0426;0.691
12.519000;-0.1256;0.6999;0.0574;0.713
12.525000;-0.1294;0.7091;0.1217;0.731
12.530000;-0.0971;0.7609;0.2409;0.804
12.535000;-0.0623;0.7738;0.3435;0.849
12.540000;-0.0449;0.7858;0.4248;0.894
12.545000;-0.0140;0.7917;0.5087;0.941
12.549000;0.0201;0.8011;0.5475;0.971
12.556000;0.0427;0.7800;0.6204;0.998
12.558000;0.0678;0.7884;0.6601;1.030
12.602000;0.1289;0.7784;0.6598;1.028
12.603000;0.2095;0.7573;0.6695;1.032
12.603000;0.2907;0.7394;0.6749;1.042
12.603000;0.3583;0.7204;0.6736;1.049
12.604000;0.4158;0.7172;0.7084;1.090
12.604000;0.4113;0.7924;0.6813;1.123
12.604000;0.3746;0.8953;0.6807;1.185
12.604000;0.3759;0.9571;0.6326;1.207
12.604000;0.3698;1.0040;0.5798;1.217
12.607000;0.4297;0.9939;0.4530;1.174
12.614000;0.4589;0.8669;0.6585;1.181
12.620000;0.5493;0.7101;0.5479;1.052
12.623000;0.5979;0.5645;0.6234;1.032
12.628000;0.5722;0.4299;0.6936;0.997
12.633000;0.4403;0.3515;0.6845;0.887
12.638000;0.2559;0.3362;0.6990;0.817
12.643000;0.0224;0.3528;0.6726;0.760
12.650000;-0.1938;0.3725;0.6269;0.755
12.653000;-0.3246;0.3577;0.6023;0.772
12.658000;-0.4027;0.2914;0.5606;0.749
12.661000;-0.4460;0.2241;0.5711;0.758
12.704000;-0.4147;0.1296;0.5405;0.693
12.705000;-0.3741;0.1011;0.5788;0.697
12.705000;-0.3124;0.0882;0.6333;0.712
12.705000;-0.2562;0.1218;0.7066;0.761
12.705000;-0.1457;0.1732;0.8199;0.851
12.706000;-0.0044;0.2135;0.9448;0.969
12.706000;0.1728;0.2117;1.0906;1.124
12.706000;0.3841;0.1674;1.2290;1.298
12.706000;0.5846;0.1260;1.3813;1.505
12.710000;0.7009;0.0899;1.5119;1.669
12.720000;0.8053;0.0512;1.6328;1.821
12.721000;0.8225;0.0099;1.6891;1.879
12.725000;0.7797;-0.0512;1.6883;1.860
12.731000;0.7185;-0.1535;1.6255;1.784
12.736000;0.6250;-0.2543;1.5154;1.659
12.740000;0.4805;-0.3843;1.3171;1.454
12.745000;0.3236;-0.4455;1.1073;1.237
12.750000;0.1611;-0.4855;0.9194;1.052
12.755000;-0.0053;-0.5449;0.6960;0.884
12.759000;-0.1722;-0.5708;0.5374;0.803
12.766000;-0.3545;-0.5846;0.3982;0.791
12.769000;-0.4265;-0.5987;0.2449;0.775
12.774000;-0.4796;-0.5679;0.1230;0.753
12.779000;-0.4452;-0.5448;0.0374;0.705
12.811000;-0.4290;-0.5250;-0.0670;0.681
12.811000;-0.3909;-0.4896;-0.1732;0.650
12.812000;-0.3364;-0.4793;-0.2956;0.656
12.812000;-0.2896;-0.4607;-0.4389;0.699
12.812000;-0.2700;-0.4623;-0.5746;0.785
12.812000;-0.2586;-0.4505;-0.7050;0.876
12.818000;-0.2296;-0.4204;-0.8135;0.944
12.821000;-0.2043;-0.4097;-0.9695;1.072
12.824000;-0.1802;-0.4397;-1.0512;1.154
12.829000;-0.1637;-0.4690;-1.1594;1.261
12.833000;-0.1212;-0.4570;-1.2533;1.339
12.838000;-0.1091;-0.4817;-1.2853;1.377
12.843000;-0.0915;-0.4857;-1.2678;1.361
12.850000;-0.0961;-0.4660;-1.2485;1.336
12.853000;-0.0750;-0.4941;-1.1392;1.244
12.858000;-0.0033;-0.5247;-1.0261;1.152
12.863000;0.0548;-0.5482;-0.9258;1.077
12.892000;0.1310;-0.5696;-0.8096;0.998
12.893000;0.1583;-0.6032;-0.6536;0.903
12.893000;0.1802;-0.6016;-0.5031;0.805
12.893000;0.1657;-0.5986;-0.3486;0.712
12.893000;0.1773;-0.5919;-0.1924;0.647
12.894000;0.1333;-0.5916;-0.0366;0.607
12.899000;0.1363;-0.5790;0.0783;0.600
12.902000;0.0691;-0.5926;0.1380;0.612
12.907000;-0.0612;-0.5706;0.2527;0.627
12.912000;-0.1260;-0.5419;0.3411;0.653
12.917000;-0.2212;-0.4976;0.4130;0.683
12.921000;-0.2895;-0.4593;0.4423;0.700
12.926000;-0.3310;-0.4372;0.4387;0.702
12.932000;-0.3937;-0.4312;0.4236;0.721
12.937000;-0.3820;-0.3843;0.3950;0.671
12.941000;-0.3248;-0.3230;0.3241;0.561
12.946000;-0.3156;-0.2498;0.2088;0.453
12.953000;-0.2898;-0.2792;0.0177;0.403
12.956000;-0.2592;-0.2388;-0.1246;0.374
12.960000;-0.1779;-0.1762;-0.3427;0.424
12.967000;-0.1228;-0.0815;-0.5553;0.575
12.970000;-0.1226;-0.0187;-0.7579;0.768
12.975000;-0.0909;0.0031;-0.9625;0.967
13.022000;-0.0971;0.0991;-1.1526;1.161
13.023000;-0.1002;0.0640;-1.3378;1.343
13.023000;-0.1505;0.0515;-1.4802;1.489
13.024000;-0.2167;0.0619;-1.5631;1.579
13.024000;-0.3324;0.0954;-1.5723;1.610
13.024000;-0.3855;0.0969;-1.5773;1.627
13.025000;-0.4717;0.1072;-1.4896;1.566
13.025000;-0.5124;0.1235;-1.3929;1.489
13.025000;-0.5270;0.1266;-1.2250;1.340
13.027000;-0.4990;0.1493;-1.0695;1.190
13.029000;-0.4595;0.1553;-0.9380;1.056
13.034000;-0.4251;0.2039;-0.8137;0.940
13.039000;-0.3526;0.2612;-0.7442;0.864
13.044000;-0.3112;0.2790;-0.6601;0.781
13.050000;-0.2387;0.3529;-0.6546;0.781
13.053000;-0.1571;0.4086;-0.6749;0.804
13.058000;-0.0829;0.4652;-0.7688;0.902
13.064000;-0.0379;0.5015;-0.8717;1.006
13.096000;0.0043;0.5251;-0.9886;1.119
13.097000;0.0054;0.5744;-1.0716;1.216
13.097000;0.0018;0.6091;-1.1713;1.320
13.097000;-0.0378;0.6154;-1.2302;1.376
13.097000;-0.0844;0.6243;-1.2940;1.439
13.098000;-0.1473;0.6626;-1.3197;1.484
13.098000;-0.1976;0.6708;-1.2860;1.464
13.103000;-0.2686;0.6848;-1.2336;1.436
13.107000;-0.3028;0.6973;-1.1839;1.407
13.112000;-0.3195;0.7060;-1.1012;1.347
13.117000;-0.3477;0.7273;-0.9974;1.282
13.122000;-0.3781;0.7634;-0.8724;1.219
13.127000;-0.4012;0.7616;-0.7452;1.139
13.139000;-0.4434;0.7764;-0.6421;1.101
13.140000;-0.4426;0.7838;-0.5222;1.041
13.142000;-0.4706;0.8047;-0.4310;1.027
13.146000;-0.4606;0.8176;-0.3897;1.016
13.152000;-0.4149;0.8008;-0.3649;0.973
13.156000;-0.3887;0.8237;-0.3565;0.978
13.163000;-0.3439;0.8360;-0.3764;0.979
13.213000;-0.3332;0.8116;-0.3769;0.955
13.214000;-0.3423;0.8127;-0.3603;0.953
13.214000;-0.4024;0.8155;-0.3436;0.972
13.214000;-0.4009;0.8011;-0.3218;0.952
13.214000;-0.4287;0.7814;-0.3214;0.947
13.215000;-0.4307;0.7611;-0.2969;0.924
13.215000;-0.4476;0.7048;-0.2986;0.887
13.215000;-0.4602;0.7013;-0.3027;0.892
13.215000;-0.4593;0.6625;-0.2759;0.852
13.216000;-0.4448;0.6361;-0.2421;0.813
13.216000;-0.4716;0.5843;-0.1345;0.763
13.220000;-0.4279;0.5382;-0.0560;0.690
13.225000;-0.4424;0.5096;0.0126;0.675
13.230000;-0.4744;0.5012;0.0737;0.694
13.235000;-0.4896;0.5368;0.1511;0.742
13.239000;-0.5212;0.5756;0.2137;0.805
13.245000;-0.5427;0.6201;0.2926;0.874
13.252000;-0.5352;0.6226;0.4093;0.917
13.255000;-0.4706;0.6260;0.5756;0.972
13.259000;-0.3492;0.5731;0.7367;0.997
13.265000;-0.1784;0.5018;0.9069;1.052
13.307000;0.0254;0.4119;1.0864;1.162
13.308000;0.2097;0.3128;1.3563;1.408
13.308000;0.3375;0.3238;1.3415;1.421
13.308000;0.3500;0.3706;1.4605;1.547
13.309000;0.2891;0.3886;1.6222;1.693
13.309000;0.2365;0.4379;1.6187;1.693
13.309000;0.1421;0.4776;1.5958;1.672
13.309000;0.0654;0.4558;1.5655;1.632
13.310000;0.0533;0.4179;1.5086;1.566
13.313000;0.0383;0.3283;1.3726;1.412
13.319000;0.0146;0.2496;1.2387;1.264
13.323000;-0.0307;0.1775;1.1450;1.159
13.328000;-0.0062;0.1005;1.1631;1.167
13.333000;-0.0064;0.0237;1.2570;1.257
13.338000;-0.0034;-0.0458;1.4121;1.413
13.343000;0.0843;-0.1654;1.5904;1.601
13.347000;0.1210;-0.2877;1.7918;1.819
13.352000;0.2250;-0.4223;1.9996;2.056
13.357000;0.2732;-0.5653;2.2069;2.294
13.362000;0.2689;-0.7190;2.4256;2.544
13.402000;0.2920;-0.8531;2.6512;2.800
13.402000;0.2762;-0.9655;2.7713;2.948
13.403000;0.1913;-1.0450;2.8533;3.045
13.403000;0.1428;-1.1086;2.9641;3.168
13.403000;0.0402;-1.1448;2.9796;3.192
13.403000;-0.0115;-1.1615;2.9813;3.200
13.404000;-0.0939;-1.1903;2.8452;3.086
13.404000;-0.1214;-1.1715;2.7530;2.994
13.406000;-0.1043;-1.1676;2.5495;2.806
13.411000;-0.0812;-1.1594;2.3018;2.579
13.417000;-0.0171;-1.1116;2.0028;2.291
13.421000;0.0786;-1.0695;1.7219;2.029
13.426000;0.1285;-0.9874;1.4017;1.719
13.430000;0.2209;-0.8844;1.0899;1.421
13.436000;0.2711;-0.8534;0.7388;1.161
13.441000;0.3529;-0.7647;0.4174;0.940
13.445000;0.4253;-0.7109;0.1136;0.836
13.452000;0.4877;-0.6842;-0.1632;0.856
13.456000;0.5328;-0.7030;-0.3991;0.968
13.462000;0.5580;-0.6856;-0.5772;1.056
13.510000;0.5613;-0.6789;-0.7125;1.133
13.511000;0.5048;-0.6563;-0.7501;1.117
13.511000;0.4611;-0.6293;-0.7260;1.066
13.511000;0.4403;-0.6314;-0.6238;0.991
13.511000;0.4291;-0.6768;-0.5127;0.951
13.512000;0.4613;-0.7372;-0.3665;0.944
13.512000;0.4916;-0.7959;-0.2257;0.962
13.512000;0.5253;-0.8272;-0.1189;0.987
13.512000;0.5078;-0.8146;-0.0053;0.960
13.513000;0.4514;-0.8064;0.0841;0.928
13.517000;0.4041;-0.7220;0.1805;0.847
13.520000;0.3465;-0.6644;0.1981;0.775
13.524000;0.3070;-0.6123;0.2087;0.716
13.529000;0.2565;-0.5949;0.1622;0.668
13.534000;0.2234;-0.5740;0.1329;0.630
13.539000;0.1856;-0.5926;0.0204;0.621
13.543000;0.1570;-0.5885;-0.0940;0.616
13.551000;0.0794;-0.5619;-0.2771;0.632
13.560000;0.0054;-0.5648;-0.4573;0.727
13.561000;-0.0483;-0.5060;-0.6467;0.823
13.563000;-0.1105;-0.4736;-0.8000;0.936
13.591000;-0.1309;-0.4768;-0.8695;1.000
13.592000;-0.1288;-0.4508;-0.9534;1.062
13.592000;-0.1467;-0.4216;-1.0064;1.101
13.593000;-0.1509;-0.3773;-1.0356;1.113
13.593000;-0.1625;-0.3416;-1.0508;1.117
13.593000;-0.1402;-0.2765;-1.1021;1.145
13.597000;-0.1240;-0.1988;-1.0889;1.114
13.602000;-0.0730;-0.1708;-1.1119;1.127
13.607000;-0.0419;-0.1234;-1.1660;1.173
13.612000;0.0006;-0.0733;-1.1437;1.146
13.617000;0.0231;-0.0493;-1.1263;1.128
13.622000;0.0091;-0.0138;-1.1400;1.140
13.626000;-0.0012;0.0427;-1.1463;1.147
13.632000;-0.0296;0.0647;-1.2025;1.205
13.636000;-0.0574;0.0999;-1.2225;1.228
13.641000;-0.0971;0.1386;-1.3352;1.346
13.646000;-0.1110;0.1593;-1.3925;1.406
13.654000;-0.1216;0.1786;-1.4994;1.515
13.657000;-0.1579;0.2303;-1.6035;1.628
13.661000;-0.1750;0.2545;-1.6711;1.699
13.665000;-0.1754;0.2707;-1.7671;1.796
13.721000;-0.1328;0.2890;-1.8868;1.913
13.721000;-0.0996;0.3074;-1.9705;1.997
13.722000;-0.0804;0.3308;-2.0636;2.092
13.722000;-0.0555;0.3478;-2.0804;2.110
13.723000;-0.0459;0.3756;-2.1071;2.141
13.723000;0.0256;0.4191;-2.1103;2.152
13.723000;0.0830;0.4475;-2.0303;2.081
13.723000;0.2009;0.4658;-1.9439;2.009
13.724000;0.2768;0.5096;-1.7816;1.874
13.724000;0.3803;0.5190;-1.6177;1.741
13.724000;0.4350;0.5297;-1.4496;1.603
13.725000;0.4339;0.5292;-1.3059;1.474
13.730000;0.4154;0.5653;-1.1626;1.358
13.735000;0.3959;0.5752;-1.0411;1.254
13.739000;0.3658;0.5922;-0.9102;1.146
13.744000;0.3535;0.6185;-0.7626;1.044
13.751000;0.3394;0.6225;-0.6677;0.974
13.755000;0.3400;0.6111;-0.6489;0.954
13.759000;0.3269;0.6179;-0.6562;0.959
13.763000;0.2687;0.6141;-0.6465;0.931
13.800000;0.2200;0.6620;-0.6389;0.946
13.801000;0.1518;0.7021;-0.6478;0.967
13.801000;0.0924;0.7467;-0.6447;0.991
13.801000;0.0780;0.7408;-0.6152;0.966
13.801000;0.0966;0.7421;-0.5810;0.947
13.801000;0.0960;0.7460;-0.5659;0.941
13.802000;0.1316;0.7429;-0.5032;0.907
13.803000;0.1055;0.7880;-0.4813;0.929
13.808000;0.1497;0.8118;-0.4476;0.939
13.812000;0.1760;0.8503;-0.3662;0.942
13.818000;0.2681;0.8913;-0.2946;0.976
13.823000;0.3541;0.9373;-0.1898;1.020
13.828000;0.3764;0.9762;-0.0755;1.049
13.832000;0.3851;1.0078;0.0601;1.081
13.837000;0.3943;1.0247;0.1933;1.115
13.842000;0.3898;1.0027;0.3552;1.133
13.848000;0.3568;0.9701;0.4957;1.146
13.854000;0.2522;0.9244;0.5337;1.097
13.857000;0.1788;0.9134;0.5720;1.092
13.861000;0.0484;0.9082;0.5964;1.088
13.905000;-0.0294;0.8826;0.6331;1.087
13.906000;-0.1190;0.8509;0.6343;1.068
13.906000;-0.1472;0.8087;0.6144;1.026
13.907000;-0.1476;0.7846;0.6355;1.020
13.907000;-0.1185;0.7717;0.6401;1.010
13.907000;-0.0836;0.7461;0.7166;1.038
13.907000;-0.0167;0.6842;0.7598;1.023
13.908000;0.0562;0.6290;0.8557;1.063
13.908000;0.1115;0.5901;0.9612;1.133
13.910000;0.0945;0.5581;1.1025;1.239
13.916000;0.0418;0.5806;1.1841;1.319
13.921000;-0.0502;0.6906;1.2444;1.424
13.926000;-0.1304;0.7736;1.2881;1.508
13.930000;-0.1866;0.8173;1.2126;1.474
13.936000;-0.1454;0.7430;1.1376;1.366
13.939000;-0.0203;0.5942;1.2181;1.355
13.945000;0.1751;0.4645;0.9546;1.076
13.952000;0.3351;0.3019;1.1023;1.191
13.955000;0.4721;0.2138;1.0610;1.181
13.960000;0.4560;0.3006;1.0364;1.172
13.965000;0.3574;0.4403;1.0093;1.158
14.014000;0.1607;0.6254;0.9417;1.142
14.015000;0.0042;0.7558;0.8907;1.168
14.016000;-0.0919;0.7646;0.8970;1.182
14.016000;-0.1243;0.6666;0.8673;1.101
14.016000;-0.0801;0.5262;0.8326;0.988
14.016000;-0.0960;0.3296;0.7833;0.855
14.017000;-0.1046;0.1555;0.7194;0.743
14.017000;-0.1649;0.0399;0.6505;0.672
14.018000;-0.2690;0.0184;0.5934;0.652
14.018000;-0.4074;0.0241;0.5456;0.681
14.020000;-0.5044;0.0351;0.4498;0.677
14.023000;-0.5461;0.0400;0.3776;0.665
14.028000;-0.4664;0.0415;0.2811;0.546
14.038000;-0.3536;0.0135;0.1673;0.391
14.039000;-0.1097;-0.0030;0.1678;0.200
14.043000;0.1104;0.0113;0.1889;0.219
14.048000;0.3763;0.0233;0.2809;0.470
14.084000;0.6434;0.0496;0.4149;0.767
14.085000;0.8808;0.0589;0.5647;1.048
14.085000;1.0442;0.0247;0.7352;1.277
14.085000;1.1029;-0.0005;0.9670;1.467
14.085000;1.0792;-0.0648;1.1383;1.570
14.086000;0.9934;-0.1308;1.3355;1.670
14.086000;0.8398;-0.2275;1.4439;1.686
14.087000;0.6572;-0.3053;1.5452;1.707
14.093000;0.4099;-0.4222;1.5654;1.672
14.097000;0.1648;-0.5186;1.5119;1.607
14.102000;-0.0979;-0.6118;1.4042;1.535
14.107000;-0.3120;-0.6491;1.2397;1.434
14.112000;-0.4953;-0.7097;1.0092;1.330
14.118000;-0.6132;-0.7460;0.8227;1.269
14.121000;-0.6838;-0.7649;0.5798;1.178
14.126000;-0.7104;-0.7424;0.3807;1.096
14.132000;-0.7108;-0.7357;0.1633;1.036
14.138000;-0.6862;-0.7324;-0.0153;1.004
14.142000;-0.6249;-0.7107;-0.1648;0.961
14.146000;-0.5752;-0.6917;-0.2686;0.939
14.151000;-0.4964;-0.7157;-0.3627;0.944
14.157000;-0.4286;-0.7367;-0.4043;0.943
14.161000;-0.3831;-0.7668;-0.4413;0.964
14.165000;-0.3226;-0.8246;-0.3949;0.970
14.171000;-0.3037;-0.8623;-0.3153;0.967
14.175000;-0.2778;-0.9060;-0.2505;0.980
14.180000;-0.2537;-0.9630;-0.2053;1.017
14.228000;-0.2594;-1.0189;-0.1532;1.063
14.229000;-0.2463;-1.0428;-0.1255;1.079
14.230000;-0.2714;-1.0683;-0.1339;1.110
14.230000;-0.2629;-1.0833;-0.1043;1.120
14.231000;-0.2850;-1.0883;-0.1156;1.131
14.231000;-0.2546;-1.0236;-0.1628;1.067
14.231000;-0.2270;-0.9973;-0.2363;1.050
14.231000;-0.1766;-0.9972;-0.3170;1.061
14.231000;-0.1040;-0.9281;-0.4691;1.045
14.232000;-0.0479;-0.8973;-0.6401;1.103
14.235000;0.0129;-0.8522;-0.7512;1.136
14.242000;0.0802;-0.8096;-0.8741;1.194
14.244000;0.1229;-0.7835;-0.9753;1.257
14.249000;0.1694;-0.7691;-1.0503;1.313
14.254000;0.1547;-0.7494;-1.0823;1.326
14.259000;0.1411;-0.7387;-1.0571;1.297
14.263000;0.1096;-0.7346;-0.9532;1.208
14.299000;0.0628;-0.7637;-0.8328;1.132
14.299000;-0.0108;-0.7995;-0.6983;1.062
14.299000;-0.0442;-0.8305;-0.5329;0.988
14.300000;-0.0675;-0.8859;-0.4009;0.975
14.300000;-0.1088;-0.8986;-0.3813;0.982
14.300000;-0.1268;-0.9050;-0.3806;0.990
14.300000;-0.1543;-0.9026;-0.4204;1.008
14.304000;-0.2198;-0.8509;-0.5601;1.042
14.308000;-0.2538;-0.7807;-0.7092;1.085
14.312000;-0.2760;-0.7301;-0.8460;1.151
14.317000;-0.2629;-0.6896;-0.9992;1.242
14.322000;-0.2250;-0.6088;-1.1713;1.339
14.327000;-0.2078;-0.5735;-1.3121;1.447
14.332000;-0.1786;-0.5478;-1.4264;1.538
14.337000;-0.1662;-0.4884;-1.5310;1.616
14.341000;-0.1542;-0.4841;-1.6595;1.736
14.347000;-0.1907;-0.4169;-1.7832;1.841
14.355000;-0.2190;-0.4087;-1.7899;1.849
14.356000;-0.2322;-0.3375;-1.8327;1.878
14.362000;-0.2544;-0.3177;-1.8256;1.870
14.366000;-0.2686;-0.3180;-1.8214;1.868
14.414000;-0.2773;-0.2908;-1.7387;1.784
14.415000;-0.3020;-0.2643;-1.5968;1.646
14.415000;-0.3091;-0.2605;-1.4221;1.478
14.415000;-0.3460;-0.2315;-1.2622;1.329
14.415000;-0.3784;-0.2279;-1.0861;1.172
14.416000;-0.3845;-0.2113;-0.9129;1.013
14.416000;-0.4021;-0.1921;-0.7232;0.850
14.416000;-0.3810;-0.1824;-0.5983;0.732
14.416000;-0.3755;-0.1369;-0.4425;0.596
14.420000;-0.3452;-0.1467;-0.3751;0.530
14.421000;-0.3399;-0.1167;-0.3410;0.495
14.425000;-0.3168;-0.1045;-0.2804;0.436
14.429000;-0.3285;-0.0313;-0.2983;0.445
14.436000;-0.3301;-0.0001;-0.3278;0.465
14.439000;-0.3405;0.1209;-0.3522;0.505
14.444000;-0.3241;0.2284;-0.3929;0.558
14.450000;-0.3363;0.2727;-0.5073;0.667
14.455000;-0.3394;0.3375;-0.5496;0.729
14.459000;-0.3459;0.3752;-0.5939;0.783
14.465000;-0.3464;0.4099;-0.6357;0.832
14.472000;-0.3600;0.4537;-0.6653;0.882
14.482000;-0.4128;0.4780;-0.7307;0.966
14.483000;-0.3853;0.4997;-0.7433;0.975
14.543000;-0.3826;0.5404;-0.7559;1.005
14.544000;-0.3444;0.5715;-0.7063;0.972
14.544000;-0.3017;0.5742;-0.7166;0.967
14.544000;-0.2804;0.5866;-0.6361;0.910
14.545000;-0.2372;0.5969;-0.5941;0.875
14.545000;-0.1815;0.6099;-0.5211;0.822
14.545000;-0.2017;0.6183;-0.4243;0.777
14.545000;-0.2499;0.5910;-0.2728;0.697
14.546000;-0.2521;0.5756;-0.0999;0.636
14.546000;-0.3135;0.5264;0.0657;0.616
14.546000;-0.3795;0.4885;0.3029;0.689
14.546000;-0.4792;0.4544;0.4470;0.797
14.547000;-0.5410;0.3880;0.5721;0.878
14.551000;-0.5772;0.3773;0.7024;0.984
14.553000;-0.5802;0.3123;0.7637;1.009
14.557000;-0.5669;0.2623;0.7656;0.988
14.562000;-0.5348;0.2466;0.7489;0.953
14.567000;-0.4959;0.2893;0.7398;0.936
14.573000;-0.4551;0.3023;0.7046;0.892
14.576000;-0.4315;0.3358;0.6698;0.865
14.582000;-0.3632;0.3448;0.6495;0.820
14.612000;-0.3245;0.3608;0.6246;0.791
14.613000;-0.2884;0.3788;0.6094;0.773
14.613000;-0.2306;0.4442;0.5919;0.775
14.613000;-0.1603;0.4974;0.6342;0.822
14.613000;-0.0511;0.5219;0.4877;0.716
14.613000;0.0965;0.4838;0.8768;1.006
14.616000;0.2338;0.4554;0.9379;1.069
14.621000;0.3321;0.4029;0.9537;1.087
14.626000;0.3983;0.3171;1.0938;1.206
14.631000;0.3807;0.3174;1.1452;1.248
14.637000;0.3399;0.2939;1.2277;1.307
14.641000;0.2429;0.3708;1.2264;1.304
14.646000;0.1927;0.4193;1.2011;1.287
14.651000;0.1530;0.4730;1.2235;1.321
14.659000;0.1904;0.4676;1.2026;1.304
14.660000;0.1991;0.4705;1.1623;1.270
14.665000;0.2240;0.4459;1.1910;1.291
14.672000;0.3057;0.4445;1.2526;1.364
14.674000;0.4249;0.3798;1.3114;1.430
14.679000;0.5984;0.3043;1.3316;1.491
14.684000;0.7688;0.2229;1.2702;1.501
14.717000;0.9505;0.1714;1.2037;1.543
14.717000;1.1118;0.0784;1.1035;1.568
14.718000;1.2715;0.0085;1.0197;1.630
14.718000;1.3957;-0.1141;0.9688;1.703
14.718000;1.5081;-0.2578;0.9102;1.780
14.718000;1.6039;-0.4177;0.8604;1.867
14.718000;1.5649;-0.5908;0.8527;1.878
14.725000;1.4640;-0.7288;0.9086;1.871
14.730000;1.2814;-0.8655;1.0136;1.849
14.734000;1.0229;-0.9813;1.1890;1.850
14.742000;0.8092;-1.0892;1.4541;1.989
14.744000;0.5454;-1.1847;1.7086;2.149
14.748000;0.2626;-1.1995;1.9814;2.331
14.757000;-0.0275;-1.2237;2.2204;2.535
14.758000;-0.2381;-1.2773;2.4139;2.741
14.763000;-0.3240;-1.2905;2.4860;2.820
14.768000;-0.3813;-1.3453;2.4705;2.839
14.775000;-0.4353;-1.3857;2.3393;2.754
14.779000;-0.4754;-1.3354;2.1355;2.563
14.783000;-0.4823;-1.2429;1.9836;2.390
14.788000;-0.4438;-1.1034;1.7355;2.104
14.792000;-0.3740;-0.9577;1.4534;1.780
14.797000;-0.2692;-0.8319;1.1682;1.459
14.802000;-0.1280;-0.6655;0.8320;1.073
14.854000;0.0303;-0.6086;0.4853;0.779
14.855000;0.2133;-0.5355;0.1805;0.604
14.856000;0.3523;-0.4504;-0.1519;0.592
14.856000;0.4869;-0.4139;-0.4622;0.789
14.856000;0.6039;-0.4134;-0.7267;1.031
14.856000;0.6637;-0.3660;-0.9528;1.217
14.857000;0.7080;-0.3406;-1.0906;1.344
14.857000;0.7450;-0.3097;-1.2314;1.472
14.857000;0.7850;-0.2655;-1.2584;1.507
14.857000;0.7788;-0.2292;-1.2409;1.483
14.857000;0.8344;-0.2530;-1.1530;1.446
14.861000;0.8711;-0.2417;-0.9635;1.321
14.866000;0.8748;-0.2145;-0.7706;1.185
14.872000;0.8312;-0.1652;-0.5334;1.001
14.876000;0.7093;-0.1039;-0.2971;0.776
14.880000;0.6315;-0.0724;-0.0831;0.641
14.885000;0.5260;-0.0188;0.0898;0.534
14.890000;0.4086;0.0079;0.2602;0.484
14.900000;0.2953;0.0194;0.3063;0.426
14.901000;0.1785;0.0530;0.3003;0.353
14.950000;0.0719;0.0746;0.2519;0.272
14.950000;-0.0489;0.0671;0.1803;0.199
14.951000;-0.1295;0.0398;-0.0122;0.136
14.951000;-0.2230;0.0504;-0.2038;0.306
14.951000;-0.2967;0.0533;-0.4159;0.514
14.951000;-0.3464;0.1210;-0.6749;0.768
14.952000;-0.3915;0.1771;-0.8661;0.967
14.952000;-0.4128;0.2702;-1.0663;1.175
14.952000;-0.3813;0.3194;-1.2159;1.314
14.953000;-0.3351;0.3230;-1.3556;1.433
14.961000;-0.2857;0.3315;-1.4473;1.512
14.962000;-0.2661;0.3191;-1.5080;1.564
14.963000;-0.2638;0.3532;-1.5258;1.588
14.968000;-0.2709;0.3553;-1.4770;1.543
14.973000;-0.2604;0.3396;-1.4144;1.478
14.979000;-0.2292;0.3468;-1.3140;1.378
14.983000;-0.2055;0.3624;-1.2283;1.297
15.032000;-0.1601;0.3670;-1.1527;1.220
15.032000;-0.1697;0.3681;-1.0776;1.151
15.033000;-0.1745;0.3820;-1.0124;1.096
15.033000;-0.1936;0.4059;-0.8877;0.995
15.033000;-0.2249;0.4443;-0.7585;0.907
15.033000;-0.2257;0.4512;-0.6987;0.862
15.033000;-0.2443;0.4862;-0.7034;0.889
15.034000;-0.2191;0.5033;-0.7174;0.903
15.034000;-0.2227;0.5217;-0.7668;0.954
15.034000;-0.2004;0.5700;-0.8183;1.017
15.038000;-0.1934;0.6431;-0.9099;1.131
15.042000;-0.2092;0.7336;-1.0058;1.262
15.048000;-0.1543;0.8084;-1.1275;1.396
15.051000;-0.1487;0.8795;-1.2630;1.546
15.057000;-0.1253;0.9328;-1.4387;1.719
15.062000;-0.0627;1.0263;-1.5782;1.884
15.066000;0.0034;1.1122;-1.6839;2.018
15.106000;0.0755;1.0979;-1.7920;2.103
15.107000;0.1702;1.1128;-1.8785;2.190
15.107000;0.2325;1.1120;-1.9460;2.253
15.108000;0.2577;1.1055;-1.9709;2.274
15.108000;0.2651;1.0792;-1.9172;2.216
15.108000;0.2047;1.0478;-1.8642;2.148
15.109000;0.1487;1.0402;-1.6636;1.968
15.109000;0.0805;1.0131;-1.4878;1.802
15.110000;-0.0255;0.9881;-1.2458;1.590
15.115000;-0.0849;0.9602;-0.9855;1.379
15.120000;-0.1374;0.8956;-0.7570;1.181
15.126000;-0.1826;0.8320;-0.5029;0.989
15.130000;-0.1773;0.8287;-0.2086;0.873
15.135000;-0.1359;0.8041;0.1259;0.825
15.140000;-0.0996;0.8576;0.3431;0.929
15.145000;-0.0684;0.8953;0.5269;1.041
15.149000;-0.0429;0.9238;0.6942;1.156
15.157000;-0.0138;0.9380;0.8094;1.239
15.160000;0.0084;0.9852;0.8821;1.322
15.164000;-0.0127;1.0270;0.9006;1.366
15.212000;-0.0130;1.0655;0.8961;1.392
15.212000;-0.0357;1.0888;0.7610;1.329
15.213000;-0.0452;1.1164;0.6341;1.285
15.213000;-0.0482;1.0864;0.4124;1.163
15.214000;-0.0492;1.0811;0.2225;1.105
15.214000;-0.0388;1.0748;0.0691;1.078
15.214000;-0.0554;1.0943;-0.0457;1.097
15.214000;-0.0677;1.0967;-0.1388;1.107
15.214000;-0.0684;1.0850;-0.2102;1.107
15.215000;-0.0336;1.0474;-0.1884;1.065
15.218000;0.0507;1.0417;-0.0784;1.046
15.223000;0.0962;0.9911;0.0218;0.996
15.228000;0.1870;0.9507;0.1623;0.982
15.233000;0.2946;0.8678;0.3194;0.970
15.238000;0.3858;0.7947;0.4977;1.014
15.243000;0.4919;0.7553;0.6758;1.127
15.248000;0.5556;0.7203;0.8849;1.269
15.253000;0.6224;0.6728;1.0461;1.391
15.258000;0.7111;0.6582;1.2073;1.548
15.262000;0.7601;0.6997;1.3163;1.673
15.267000;0.7797;0.7971;1.3514;1.752
15.309000;0.6705;0.9668;1.3274;1.774
15.309000;0.6195;1.1061;1.2585;1.786
15.309000;0.6139;1.2102;0.9060;1.632
15.310000;0.6699;1.1749;0.8577;1.601
15.310000;0.8374;1.0488;0.7115;1.519
15.310000;1.0431;0.8641;0.6178;1.489
15.310000;1.1935;0.6687;0.5502;1.475
15.310000;1.2615;0.5732;0.5251;1.482
15.312000;1.1748;0.5870;0.4996;1.405
15.316000;0.9354;0.7151;0.4544;1.262
15.322000;0.6469;0.8332;0.4372;1.142
15.326000;0.4572;0.8746;0.5150;1.113
15.331000;0.3484;0.8066;0.5367;1.030
15.336000;0.3719;0.5984;0.6385;0.951
15.341000;0.3572;0.3579;0.7582;0.911
15.346000;0.3242;0.1712;0.9364;1.006
15.351000;0.2691;0.0374;1.1064;1.139
15.358000;0.1266;-0.0199;1.2371;1.244
15.364000;-0.0190;-0.0090;1.3315;1.332
15.365000;-0.1936;0.0078;1.3919;1.405
15.370000;-0.3186;-0.0108;1.4546;1.489
15.424000;-0.3228;-0.0411;1.4573;1.493
15.424000;-0.2881;-0.1480;1.3622;1.400
15.425000;-0.1698;-0.2550;1.2625;1.299
15.425000;-0.0425;-0.4004;1.1654;1.233
15.425000;-0.0049;-0.4337;1.0613;1.147
15.425000;0.0097;-0.4601;1.0578;1.154
15.426000;-0.0512;-0.4151;1.0258;1.108
15.426000;-0.1175;-0.3872;1.0417;1.118
15.426000;-0.2072;-0.3963;1.0150;1.109
15.426000;-0.3195;-0.4115;0.9624;1.094
15.427000;-0.4468;-0.4643;0.8890;1.098
15.429000;-0.5764;-0.5379;0.6538;1.024
15.433000;-0.7057;-0.5677;0.4600;1.016
15.440000;-0.7868;-0.5701;0.2360;1.000
15.444000;-0.8608;-0.6124;-0.0135;1.057
15.449000;-0.9123;-0.5790;-0.1811;1.096
15.454000;-0.9204;-0.5606;-0.2766;1.113
15.459000;-0.9056;-0.5880;-0.3861;1.147
15.463000;-0.9065;-0.6183;-0.5217;1.215
15.467000;-0.8999;-0.6420;-0.6617;1.288
15.500000;-0.8838;-0.6828;-0.7417;1.341
15.501000;-0.8949;-0.6948;-0.8456;1.414
15.501000;-0.8734;-0.6659;-0.9424;1.447
15.502000;-0.8701;-0.6601;-1.0012;1.482
15.502000;-0.8373;-0.6677;-1.0172;1.477
15.502000;-0.8231;-0.6547;-1.0148;1.461
15.502000;-0.7436;-0.7094;-0.9867;1.425
15.509000;-0.6271;-0.7646;-0.9282;1.356
