time;ax;ay;az;aT
0.003000;0.0047;-0.4196;-0.5359;0.681
0.004000;0.0016;-0.1421;-0.2049;0.249
0.013000;-0.0001;0.0215;0.0350;0.041
0.024000;-0.0073;0.1303;0.2298;0.264
0.034000;-0.0181;0.2602;0.4751;0.542
0.043000;-0.0161;0.3475;0.6402;0.729
0.053000;-0.0053;0.3835;0.7022;0.800
0.063000;-0.0015;0.3217;0.5757;0.659
0.073000;-0.0051;0.2402;0.4147;0.479
0.083000;-0.0028;0.1365;0.2240;0.262
0.094000;0.0000;-0.0022;-0.0035;0.004
0.103000;0.0005;-0.0984;-0.1469;0.177
0.114000;0.0001;-0.1035;-0.1547;0.186
0.124000;0.0001;-0.0783;-0.1212;0.144
0.133000;0.0002;-0.0399;-0.0632;0.075
0.143000;-0.0001;0.0051;0.0083;0.010
0.153000;-0.0003;0.0320;0.0523;0.061
0.164000;-0.0001;0.0582;0.0955;0.112
0.174000;0.0002;0.0437;0.0721;0.084
0.183000;-0.0140;0.1722;0.2974;0.344
0.193000;-0.0707;0.5030;0.9485;1.076
0.203000;-0.0504;0.5790;1.0917;1.237
0.214000;-0.0146;0.3776;0.6639;0.764
0.224000;0.0020;0.2183;0.3612;0.422
0.233000;0.0008;0.0823;0.1342;0.157
0.243000;0.0002;-0.0191;-0.0305;0.036
0.253000;0.0023;-0.0826;-0.1312;0.155
0.263000;0.0036;-0.0992;-0.1587;0.187
0.274000;0.0028;-0.0889;-0.1452;0.170
0.284000;0.0015;-0.1027;-0.1693;0.198
0.293000;-0.0009;-0.1304;-0.2138;0.250
0.303000;-0.0035;-0.1398;-0.2280;0.267
0.315000;-0.0042;-0.1433;-0.2363;0.276
0.323000;-0.0669;-0.2155;-0.2228;0.317
0.333000;-0.1279;-0.2850;-0.2083;0.375
0.343000;-0.1409;-0.3138;-0.1974;0.397
0.353000;-0.1062;-0.2958;-0.1533;0.350
0.364000;-0.1430;-0.2773;-0.2051;0.373
0.373000;-0.2392;-0.2830;-0.3881;0.537
0.383000;-0.4043;-0.3027;-0.5326;0.734
0.393000;-0.5775;-0.2890;-0.5192;0.829
0.403000;-0.6422;-0.2593;-0.5392;0.878
0.414000;-0.6009;-0.2463;-0.4798;0.807
0.424000;-0.5497;-0.2074;-0.3769;0.698
0.433000;-0.5170;-0.0839;-0.1731;0.552
0.443000;-0.2831;-0.0314;-0.1925;0.344
0.453000;0.0953;0.1048;-0.2262;0.267
0.463000;0.0536;0.3054;0.0768;0.319
0.474000;-0.0693;0.2689;-0.1084;0.298
0.483000;-0.0822;0.1331;-0.4074;0.436
0.493000;-0.1073;0.2455;-0.1256;0.296
0.503000;0.0836;0.4060;0.0836;0.423
0.514000;0.4329;0.3517;-0.3602;0.664
0.525000;0.7849;0.2463;-0.7419;1.108
0.533000;0.9772;0.1004;-0.6745;1.192
0.543000;0.9500;-0.0711;-0.2336;0.981
0.553000;0.8118;-0.3423;0.3477;0.947
0.563000;0.7000;-0.5658;0.6979;1.139
0.574000;0.2712;-0.4626;0.7788;0.946
0.583000;0.6658;-0.4476;0.5232;0.958
0.594000;0.5336;0.1309;1.2304;1.348
0.604000;-0.1343;0.8115;0.6784;1.066
0.614000;-1.0750;0.9610;0.1074;1.446
0.624000;-1.4683;0.3897;0.9812;1.808
0.634000;-0.8737;-0.2145;2.2182;2.394
0.644000;-0.1055;-0.0143;2.4575;2.460
0.653000;0.4308;0.1672;3.4581;3.489
0.663000;1.1467;0.2011;4.4756;4.625
0.675000;1.6072;0.0187;3.0028;3.406
0.683000;1.3722;-0.4490;1.3612;1.984
0.694000;0.6358;-1.1745;0.8904;1.605
0.704000;-0.3686;-0.4156;-0.0832;0.562
0.715000;-1.4867;0.5747;-0.0630;1.595
0.729000;-1.8235;1.2787;-0.4353;2.269
0.733000;-0.8021;1.3699;-1.1370;1.953
0.744000;-0.5942;0.9085;-1.1805;1.604
0.753000;-0.2772;0.5519;-0.3719;0.721
0.763000;-0.4039;0.1240;-0.2371;0.484
0.776000;-0.4493;-0.0504;-1.0904;1.180
0.783000;-0.3931;0.0864;-1.4343;1.490
0.794000;-0.4763;0.1489;-1.4795;1.561
0.803000;-0.7820;0.0430;-1.3175;1.533
0.818000;-1.0652;-0.0937;-1.0751;1.516
0.825000;-1.0212;-0.1030;-0.8349;1.323
0.833000;-0.7300;-0.1136;-0.4691;0.875
0.843000;-0.4366;-0.2359;-0.2487;0.555
0.853000;-0.3233;-0.3478;-0.1105;0.487
0.863000;-0.2687;-0.3686;0.1339;0.475
0.875000;-0.1124;-0.3008;0.2017;0.379
0.883000;-0.1299;-0.3152;0.1163;0.360
0.894000;-0.1842;-0.4005;0.0731;0.447
0.903000;-0.4227;-0.4480;0.0362;0.617
0.914000;-0.5332;-0.4417;-0.2012;0.721
0.925000;-0.5700;-0.4259;-0.5375;0.892
0.934000;-0.6236;-0.4785;-0.5813;0.978
0.943000;-0.6511;-0.4789;-0.4631;0.932
0.953000;-0.7383;-0.3497;-0.3362;0.883
0.964000;-0.8459;-0.2424;-0.1998;0.902
0.975000;-0.7448;-0.1635;-0.1057;0.770
0.983000;-0.6324;-0.0897;-0.0762;0.643
0.993000;-0.7182;-0.0064;0.0429;0.720
1.003000;-0.8039;-0.0909;0.3358;0.876
1.015000;-0.6876;-0.2570;0.5350;0.908
1.025000;-0.3074;-0.3553;0.4035;0.619
1.033000;0.1232;-0.4045;0.0714;0.429
1.043000;0.2693;-0.3386;-0.1703;0.465
1.053000;0.1210;-0.1303;-0.2193;0.282
1.063000;-0.1963;0.1330;-0.0689;0.247
1.075000;-0.5750;0.2998;0.1110;0.658
1.083000;-0.7015;0.4154;0.5777;0.999
1.094000;-0.5171;0.4666;0.9628;1.188
1.104000;-0.0476;0.4260;0.8954;0.993
1.114000;0.0386;0.3558;0.8147;0.890
1.132000;0.0120;0.2876;0.6449;0.706
1.135000;-0.0539;0.2252;0.3681;0.435
1.145000;-0.2291;0.1492;0.5174;0.585
1.153000;-0.0111;0.3335;0.5742;0.664
1.163000;0.1582;0.4174;0.2866;0.530
1.176000;0.1735;0.3493;0.1605;0.422
1.183000;0.1951;0.1581;-0.1419;0.288
1.193000;0.1565;-0.6362;1.8025;1.918
1.203000;0.9048;-0.4214;0.1167;1.005
1.213000;1.0046;0.3610;0.8818;1.385
1.226000;1.0348;0.6990;1.1908;1.725
1.233000;1.0092;0.7203;1.0255;1.609
1.243000;0.7994;0.5768;0.8849;1.325
1.253000;1.0649;0.7218;0.5848;1.413
1.263000;1.2257;0.8206;-0.0086;1.475
1.276000;0.8663;0.6651;-0.4456;1.180
1.284000;0.5191;0.5212;-1.0770;1.304
1.294000;0.3237;0.4158;-1.6075;1.692
1.306000;0.1754;0.3538;-1.9064;1.947
1.314000;0.0264;0.2848;-1.9597;1.980
1.331000;-0.0474;0.2040;-1.8228;1.835
1.334000;0.0148;0.1652;-1.5834;1.592
1.352000;0.1888;0.1772;-1.1616;1.190
1.354000;0.3887;0.1984;-0.6581;0.790
1.366000;0.6206;0.2404;-0.2680;0.717
1.376000;0.8021;0.2595;-0.0261;0.843
1.383000;0.9087;0.3246;0.1789;0.981
1.393000;0.9739;0.4394;0.5548;1.204
1.403000;1.0332;0.5669;1.0548;1.582
1.416000;1.0181;0.5579;1.3665;1.793
1.433000;0.8730;0.2548;0.8354;1.235
1.443000;0.5304;-0.1348;0.5520;0.777
1.453000;0.4605;-0.2730;0.3380;0.633
1.463000;0.4472;-0.3530;0.2625;0.627
1.474000;0.4872;-0.3308;0.2948;0.659
1.484000;0.5293;-0.2631;0.4865;0.766
1.495000;0.4991;-0.1963;0.8460;1.002
1.504000;0.3775;-0.1419;1.1889;1.255
1.516000;0.1962;-0.1725;1.5674;1.589
1.524000;0.0116;-0.3206;1.7741;1.803
1.534000;-0.1181;-0.5274;1.7054;1.789
1.546000;-0.2446;-0.7264;1.4847;1.671
1.554000;-0.3828;-0.8237;1.1938;1.500
1.565000;-0.4810;-0.7941;0.8225;1.240
1.574000;-0.5346;-0.6616;0.4930;0.983
1.585000;-0.4949;-0.4377;0.2129;0.694
1.598000;-0.3604;-0.1705;-0.0237;0.399
1.604000;-0.1507;0.0745;-0.2850;0.331
1.617000;0.0334;0.3159;-0.5636;0.647
1.624000;0.1552;0.5624;-0.7411;0.943
1.634000;0.1409;0.7501;-0.7458;1.067
1.643000;0.1149;0.8962;-0.7392;1.167
1.653000;0.1066;0.9406;-0.8096;1.246
1.663000;0.1032;0.8947;-0.8887;1.265
1.674000;0.0775;0.7945;-0.9183;1.217
1.684000;0.0711;0.7115;-0.8692;1.126
1.698000;0.1298;0.7053;-0.8160;1.086
1.708000;0.2038;0.7395;-0.7991;1.108
1.723000;0.2881;0.7864;-0.8574;1.199
1.726000;0.3408;0.8250;-0.8302;1.219
1.734000;0.3818;0.8463;-0.5472;1.078
1.745000;0.3378;0.7287;0.2590;0.844
1.754000;0.3284;0.7276;0.2599;0.839
1.764000;0.2941;0.5684;0.6785;0.933
1.774000;0.1289;0.1121;0.6272;0.650
1.784000;-0.0803;-0.0690;0.5812;0.591
1.795000;-0.3125;-0.1861;0.6173;0.717
1.804000;-0.4937;-0.2795;0.6671;0.876
1.814000;-0.5576;-0.3394;0.5912;0.881
1.824000;-0.5154;-0.3812;0.4206;0.767
1.834000;-0.4450;-0.3815;0.1749;0.612
1.850000;-0.2604;-0.3562;-0.2253;0.495
1.854000;0.0661;-0.2115;-0.8730;0.901
1.864000;0.3501;0.1582;-1.0338;1.103
1.878000;0.2463;0.3557;-1.3550;1.422
1.885000;-0.3180;0.0410;-1.6291;1.660
1.894000;-1.2786;-0.5012;-1.8876;2.334
1.903000;-1.3956;-0.8725;-1.8063;2.444
1.913000;-1.0603;-0.7765;-1.9660;2.365
1.924000;-0.3792;-0.6174;-0.7931;1.074
1.934000;0.4260;-0.7098;0.2231;0.857
1.950000;0.6744;-0.9140;1.1072;1.586
1.954000;0.4977;-0.9206;1.7740;2.060
1.963000;-0.0716;-0.7796;2.3047;2.434
1.973000;-0.8372;-0.6338;2.6152;2.818
1.984000;-1.1850;-0.4224;2.5750;2.866
1.994000;-1.2137;-0.2464;2.3603;2.666
2.004000;-1.1460;-0.2126;1.9769;2.295
2.013000;-1.1074;-0.3069;1.3727;1.790
2.023000;-1.1995;-0.4482;0.7186;1.468
2.034000;-1.4962;-0.5622;0.1549;1.606
2.048000;-1.7642;-0.6684;-0.2721;1.906
2.053000;-1.8514;-0.7020;-0.5572;2.057
2.063000;-1.8179;-0.6272;-0.6936;2.044
2.073000;-1.7542;-0.5104;-0.8523;2.016
2.083000;-1.6031;-0.3584;-0.9539;1.900
2.095000;-1.3686;-0.1832;-0.8820;1.638
2.104000;-0.9667;0.0203;-0.6125;1.145
2.114000;-1.0330;0.0623;-0.4140;1.115
2.124000;-1.1604;0.0267;-0.1132;1.166
2.133000;-1.1957;-0.0688;0.1968;1.214
2.146000;-1.1308;-0.1536;0.5065;1.249
2.153000;-0.9535;-0.1228;0.5601;1.113
2.164000;-0.8990;-0.1202;0.4543;1.014
2.173000;-0.9151;-0.1198;0.2879;0.967
2.183000;-0.9394;-0.1023;0.1408;0.955
2.196000;-1.0066;-0.1125;0.0188;1.013
2.203000;-1.0077;-0.1464;-0.0334;1.019
2.213000;-0.9491;-0.2159;-0.1187;0.981
2.225000;-0.8580;-0.2794;-0.2088;0.926
2.236000;-0.7426;-0.3613;-0.2406;0.860
2.254000;-0.6029;-0.3361;-0.2480;0.733
2.256000;-0.4235;-0.2216;-0.1339;0.496
2.264000;-0.2827;-0.0625;0.0589;0.295
2.273000;-0.1870;0.0595;0.1832;0.268
2.284000;-0.1283;0.1348;0.2085;0.279
2.294000;-0.0585;0.1728;0.1926;0.265
2.303000;-0.0351;0.1781;0.2357;0.297
2.317000;-0.0076;0.2024;0.3461;0.401
2.324000;0.0492;0.2100;0.4333;0.484
2.338000;0.1391;0.2479;0.4871;0.564
2.352000;0.1945;0.2876;0.5325;0.636
2.355000;0.2009;0.3200;0.5173;0.641
2.366000;0.2272;0.3426;0.4447;0.606
2.374000;0.3431;0.4222;0.4148;0.684
2.384000;0.4733;0.5024;0.3404;0.770
2.395000;0.5672;0.5845;0.2420;0.850
2.404000;0.6696;0.6758;0.1008;0.957
2.414000;0.7608;0.7246;-0.1049;1.056
2.425000;0.8268;0.7532;-0.2144;1.139
2.434000;1.0172;0.8071;-0.1945;1.313
2.454000;1.0728;0.7409;-0.1106;1.308
2.456000;1.0454;0.6261;0.0011;1.219
2.465000;0.8748;0.4758;0.1411;1.006
2.474000;0.6501;0.3202;0.2218;0.758
2.484000;0.4672;0.1549;0.2646;0.559
2.495000;0.3474;0.0368;0.3893;0.523
2.504000;0.2167;-0.0832;0.4970;0.548
2.514000;0.1318;-0.1617;0.4783;0.522
2.524000;0.0732;-0.2133;0.3726;0.436
2.534000;0.0131;-0.2323;0.2455;0.338
2.553000;-0.0304;-0.2019;0.2673;0.336
2.555000;-0.0000;-0.1498;0.2655;0.305
2.572000;0.1122;-0.0760;0.2080;0.248
2.575000;0.2378;0.0152;0.1512;0.282
2.587000;0.3213;0.0870;0.0226;0.334
2.601000;0.3062;0.1057;-0.0546;0.328
2.604000;0.3125;0.0956;-0.1031;0.343
2.614000;0.3528;0.0569;-0.1532;0.389
2.623000;0.3649;0.0118;-0.0723;0.372
2.633000;0.4075;-0.0248;0.1237;0.427
2.650000;0.4142;-0.0789;0.2978;0.516
2.653000;0.4304;-0.0795;0.3838;0.582
2.667000;0.4445;-0.0729;0.3808;0.590
2.673000;0.4424;-0.0103;0.3460;0.562
2.684000;0.4464;0.0311;0.2953;0.536
2.694000;0.4949;0.0882;0.2216;0.549
2.703000;0.5456;0.1847;0.2016;0.610
2.713000;0.5794;0.2433;0.2374;0.672
2.723000;0.5717;0.2705;0.1992;0.663
2.734000;0.5720;0.2739;0.0760;0.639
2.752000;0.5452;0.2555;-0.0649;0.606
2.756000;0.4693;0.2142;-0.1529;0.538
2.765000;0.2444;0.1585;-0.2422;0.379
2.774000;0.1471;0.1492;-0.3134;0.377
2.784000;0.1025;0.1283;-0.4464;0.476
2.797000;0.0976;0.1476;-0.5984;0.624
2.804000;0.0657;0.1882;-0.6928;0.721
2.815000;0.0245;0.2273;-0.7337;0.769
2.824000;0.0139;0.2531;-0.6654;0.712
2.834000;0.0498;0.2751;-0.5297;0.599
2.853000;0.0464;0.2511;-0.4523;0.519
2.856000;-0.0239;0.1974;-0.4293;0.473
2.867000;-0.0839;0.1249;-0.5118;0.533
2.874000;-0.0826;0.0492;-0.6231;0.630
2.884000;-0.0987;0.0143;-0.6321;0.640
2.894000;-0.1569;0.0507;-0.4639;0.492
2.903000;-0.1663;0.0707;-0.1681;0.247
2.913000;-0.1524;0.0570;0.2182;0.272
2.923000;-0.1644;0.0063;0.5550;0.579
2.934000;-0.2324;-0.0781;0.7857;0.823
2.945000;-0.3157;-0.1623;0.9463;1.011
2.953000;-0.3800;-0.2367;0.9990;1.095
2.963000;-0.4053;-0.2666;0.9283;1.047
2.973000;-0.3915;-0.2453;0.7331;0.867
2.983000;-0.3742;-0.1688;0.5646;0.698
2.995000;-0.3398;-0.0519;0.5428;0.643
3.003000;-0.2561;0.0770;0.5460;0.608
3.014000;-0.1781;0.1755;0.5396;0.595
3.024000;-0.1354;0.2295;0.5491;0.610
3.034000;-0.1098;0.2192;0.5923;0.641
3.055000;-0.1135;0.1702;0.5910;0.625
3.056000;-0.1446;0.1092;0.5261;0.556
3.063000;-0.1710;0.0421;0.4486;0.482
3.073000;-0.1791;0.0142;0.3962;0.435
3.083000;-0.1806;0.0119;0.2658;0.322
3.095000;-0.1390;0.1361;-0.2595;0.324
3.103000;-0.1371;0.2217;-0.4435;0.514
3.113000;-0.1353;0.3101;-0.4708;0.580
3.124000;-0.0937;0.3894;-0.3905;0.559
3.137000;-0.0525;0.4274;-0.2087;0.478
3.161000;-0.0515;0.3879;0.0748;0.398
3.164000;-0.0884;0.3332;0.3820;0.515
3.166000;-0.1798;0.2334;0.5676;0.639
3.173000;-0.2730;0.1378;0.6138;0.686
3.185000;-0.3417;0.0375;0.5735;0.669
3.196000;-0.4005;-0.0438;0.4938;0.637
3.204000;-0.3753;-0.0270;0.4040;0.552
3.218000;-0.2832;0.0689;0.3281;0.439
3.223000;-0.2136;0.2250;0.3508;0.468
3.234000;-0.1500;0.3446;0.3518;0.515
3.249000;-0.0838;0.4004;0.3051;0.510
3.254000;-0.0399;0.4380;0.3236;0.546
3.264000;0.0495;0.4317;0.3992;0.590
3.273000;0.1168;0.3792;0.4121;0.572
3.283000;0.1091;0.2850;0.4079;0.509
3.295000;0.0736;0.1750;0.4236;0.464
3.303000;0.0534;0.0756;0.3966;0.407
3.314000;0.0386;-0.0509;0.3035;0.310
3.323000;0.0614;-0.1739;0.1889;0.264
3.333000;0.0948;-0.2865;0.0721;0.310
3.347000;0.1184;-0.3987;-0.0616;0.420
3.353000;0.1624;-0.4411;-0.2283;0.523
3.363000;0.2289;-0.4630;-0.4315;0.673
3.373000;0.2797;-0.4804;-0.6217;0.834
3.383000;0.3418;-0.4492;-0.6989;0.898
3.395000;0.4042;-0.4485;-0.7474;0.961
3.403000;0.4347;-0.4450;-0.7490;0.974
3.414000;0.4199;-0.4542;-0.7513;0.973
3.424000;0.3773;-0.4817;-0.7994;1.007
3.434000;0.2221;-0.5205;-0.9064;1.069
3.456000;0.1815;-0.5230;-1.0771;1.211
3.457000;0.1819;-0.5144;-1.3258;1.434
3.464000;0.1813;-0.4643;-1.5293;1.608
3.473000;0.1414;-0.3610;-1.6533;1.698
3.483000;0.1054;-0.2223;-1.7116;1.729
3.496000;0.1088;-0.0837;-1.5461;1.552
3.503000;0.1726;0.0529;-1.0769;1.092
3.513000;0.2585;0.0988;-0.4239;0.506
3.523000;0.3069;0.0775;0.2105;0.380
3.534000;0.2513;-0.0049;0.7321;0.774
3.557000;0.1431;-0.0647;1.1300;1.141
3.558000;0.0863;-0.0315;1.5323;1.535
3.567000;0.1356;0.0907;1.8371;1.844
3.573000;0.2676;0.2800;1.8215;1.862
3.583000;0.4273;0.5440;1.4006;1.562
3.596000;0.5634;0.8332;0.7083;1.230
3.604000;0.6872;1.1289;-0.1118;1.326
3.613000;0.7133;1.3618;-0.9184;1.791
3.623000;0.6462;1.4942;-1.5233;2.229
3.634000;0.5364;1.5950;-1.9169;2.551
3.648000;0.4007;1.6720;-2.1077;2.720
3.658000;0.3107;1.6980;-2.1556;2.762
3.666000;0.2954;1.7006;-1.9941;2.637
3.673000;0.2982;1.6792;-1.6622;2.382
3.683000;0.2806;1.6012;-1.2115;2.027
3.693000;0.2206;1.4661;-0.6848;1.633
3.703000;0.1140;1.3335;-0.0951;1.342
3.717000;-0.0334;1.1727;0.4630;1.261
3.724000;-0.1585;0.9893;0.8912;1.341
3.746000;-0.2129;0.8143;1.1539;1.428
3.748000;-0.1043;0.7390;1.2519;1.458
3.753000;0.1210;0.7756;1.1257;1.372
3.763000;0.4905;1.1786;1.0734;1.668
3.773000;0.5962;1.3749;1.1748;1.904
3.783000;0.6563;1.4534;1.4574;2.160
3.794000;0.6268;1.3917;1.7166;2.297
3.803000;0.5152;1.1841;1.8605;2.265
3.818000;0.3815;0.8778;1.7948;2.034
3.824000;0.2770;0.5945;1.4487;1.590
3.846000;0.1683;0.3976;0.8881;0.987
3.848000;0.1225;0.3590;0.2875;0.476
3.853000;0.0906;0.4995;-0.2211;0.554
3.865000;0.1050;0.7284;-0.6053;0.953
3.873000;0.1577;0.9645;-0.9913;1.392
3.883000;0.2248;1.1409;-1.3749;1.801
3.894000;0.2801;1.2880;-1.7294;2.174
3.904000;0.3194;1.3899;-2.0029;2.459
3.920000;0.3460;1.4582;-2.1578;2.627
3.924000;0.3316;1.4569;-2.2698;2.717
3.946000;0.3396;1.4296;-2.4591;2.865
3.949000;0.3365;1.4029;-2.6910;3.053
3.954000;0.2772;1.3556;-2.8445;3.163
3.964000;0.1654;1.3192;-2.8939;3.185
3.973000;0.0430;1.2553;-2.8467;3.112
3.983000;-0.0908;1.1515;-2.6642;2.904
3.997000;-0.2225;1.0176;-2.3039;2.528
4.003000;-0.3007;0.8584;-1.8725;2.082
4.013000;-0.3482;0.6951;-1.4879;1.679
4.023000;-0.4148;0.5550;-1.2315;1.413
4.033000;-0.5152;0.4600;-1.1077;1.305
4.044000;-0.5718;0.4310;-1.0581;1.278
4.054000;-0.5642;0.4402;-1.0808;1.296
4.064000;-0.5507;0.4938;-1.0927;1.320
4.073000;-0.4648;0.6545;-1.0618;1.331
4.083000;-0.3413;0.8942;-0.9588;1.355
4.094000;-0.1668;1.3176;-0.7585;1.529
4.103000;-0.1470;1.4440;-0.8196;1.667
4.117000;-0.1769;1.5646;-0.8358;1.783
4.124000;-0.2085;1.6883;-0.6476;1.820
4.138000;-0.2268;1.7957;-0.3212;1.838
4.144000;-0.2157;1.7999;-0.1419;1.818
4.153000;-0.1611;1.7373;-0.0368;1.745
4.164000;-0.0762;1.6685;0.2414;1.688
4.173000;0.0178;1.5988;0.7553;1.768
4.184000;0.1757;1.5786;1.3438;2.081
4.194000;0.3979;1.5885;1.8054;2.437
4.204000;0.4776;1.5865;1.9546;2.562
4.220000;0.2736;1.5366;1.9311;2.483
4.224000;-0.1136;1.4251;1.7741;2.278
4.251000;-0.5465;1.2339;1.7567;2.215
4.253000;-0.9399;0.9403;1.9651;2.373
4.254000;-1.0984;0.6615;2.6034;2.902
4.264000;-1.0493;0.4593;3.4752;3.659
4.274000;-0.9897;0.3223;4.2499;4.376
4.283000;-0.9220;0.3804;4.7263;4.830
4.293000;-0.7324;0.5820;4.7832;4.874
4.304000;-0.3704;0.9313;4.3719;4.485
4.319000;0.1236;1.3942;3.6747;3.932
4.328000;0.5562;1.7317;3.0376;3.541
4.342000;0.6371;1.5686;2.2678;2.830
4.348000;0.1493;0.9245;1.2287;1.545
4.354000;-0.8044;0.0637;0.6517;1.037
4.364000;-1.8670;-0.7494;1.0725;2.280
4.373000;-2.6031;-1.4172;2.0577;3.608
4.383000;-2.6989;-1.8775;2.7694;4.299
4.393000;-2.2441;-2.0571;2.9957;4.271
4.403000;-1.5646;-1.9855;2.8722;3.826
4.420000;-0.9977;-1.6782;2.6408;3.284
4.424000;-0.4642;-0.8237;2.4943;2.667
4.442000;-0.3255;-0.5778;2.6659;2.747
4.446000;-0.3121;-0.6081;2.8382;2.919
4.455000;-0.4052;-0.8966;2.8280;2.994
4.466000;-0.6823;-1.3517;2.4948;2.918
4.473000;-0.9388;-1.8279;2.0562;2.907
4.483000;-0.9783;-2.2428;1.4179;2.828
4.493000;-0.8081;-2.5112;0.4864;2.682
4.503000;-0.4837;-2.5590;-0.4325;2.640
4.517000;-0.1462;-2.4415;-1.0858;2.676
4.524000;0.1465;-2.2283;-1.6462;2.774
4.535000;0.3667;-1.9378;-2.1579;2.923
4.544000;0.6245;-1.5447;-2.4224;2.940
4.553000;0.8478;-1.1223;-2.3583;2.746
4.564000;1.0070;-0.7723;-2.0711;2.429
4.573000;1.0900;-0.5265;-1.8545;2.215
4.584000;1.0651;-0.4753;-1.8064;2.150
4.593000;0.9087;-0.5813;-1.9608;2.238
4.605000;0.6025;-0.7661;-2.2739;2.474
4.619000;0.1552;-1.0429;-2.6016;2.807
4.624000;-0.3116;-1.3359;-2.7496;3.073
4.646000;-0.7369;-1.5848;-2.7058;3.221
4.648000;-1.0524;-1.7398;-2.5318;3.247
4.653000;-1.2914;-1.8116;-2.2656;3.175
4.665000;-1.3219;-1.7530;-1.8234;2.854
4.673000;-1.0758;-1.5957;-1.3195;2.333
4.688000;-0.7614;-1.4317;-0.9251;1.867
4.693000;-0.4300;-1.2063;-0.5843;1.408
4.704000;-0.0908;-0.9378;-0.3203;0.995
4.719000;0.2159;-0.7318;-0.3169;0.826
4.723000;0.4182;-0.6239;-0.5496;0.931
4.739000;0.4650;-0.5598;-0.7718;1.061
4.744000;0.5398;-0.4484;-0.8959;1.138
4.753000;0.6173;-0.2789;-1.3206;1.484
4.765000;0.5722;-0.1204;-1.7110;1.808
4.773000;0.4210;-0.1294;-2.0736;2.120
4.784000;0.2926;-0.1407;-2.3055;2.328
4.793000;0.1364;-0.1280;-2.3232;2.331
4.803000;0.0338;-0.1009;-2.0555;2.058
4.820000;-0.0012;-0.0465;-1.6917;1.692
4.827000;-0.0679;-0.0515;-1.4443;1.447
4.844000;-0.3812;-0.3359;-1.1111;1.222
4.853000;-0.5627;-0.4785;-0.9468;1.201
4.865000;-0.5918;-0.5437;-0.5518;0.975
4.873000;-0.4297;-0.5524;0.0627;0.703
4.884000;-0.1855;-0.5605;0.6884;0.907
4.893000;0.0263;-0.6075;1.2804;1.418
4.903000;-0.0267;-0.7951;1.9885;2.142
4.919000;-0.4250;-1.0904;2.7732;3.010
4.924000;-0.5749;-1.4016;3.0812;3.433
4.946000;0.1309;-1.7516;2.1484;2.775
4.948000;1.3156;-2.0092;0.0338;2.402
4.954000;2.4928;-1.8755;-2.1472;3.787
4.966000;3.3744;-1.4899;-4.0000;5.441
4.973000;3.7373;-0.8764;-5.0687;6.358
4.985000;3.6447;-0.0912;-5.0782;6.251
4.993000;3.2340;0.8237;-3.5986;4.908
5.004000;2.8302;1.5672;-1.2368;3.463
5.021000;2.6069;1.6202;1.2022;3.296
5.025000;2.4826;1.0113;3.4324;4.355
5.050000;2.2627;0.0909;5.5150;5.962
5.054000;1.8835;-0.9044;7.0434;7.347
5.056000;1.3887;-1.7227;7.7615;8.071
5.065000;0.7299;-2.2982;7.8709;8.232
5.074000;-0.0493;-2.5952;7.5514;7.985
5.083000;-0.8613;-2.5847;6.9581;7.472
5.093000;-2.0253;-2.0408;5.4271;6.142
5.103000;-2.2198;-1.5426;4.4944;5.245
5.118000;-2.3872;-1.1768;3.3983;4.316
5.123000;-2.5385;-0.9190;2.2439;3.510
5.141000;-2.6917;-0.7394;1.1719;3.027
5.144000;-2.6975;-0.5821;0.3200;2.778
5.153000;-2.3122;-0.3034;-0.2239;2.343
5.165000;-1.8171;-0.1684;-0.7488;1.973
5.173000;-1.2977;0.0942;-0.9937;1.637
5.183000;-0.5526;0.6601;-1.4508;1.687
5.193000;0.1691;1.1868;-1.7311;2.106
5.204000;0.7994;1.6522;-1.8165;2.582
5.218000;1.2522;2.0444;-1.8088;3.003
5.223000;1.4707;2.2490;-1.7788;3.223
5.238000;1.4362;2.1338;-1.8692;3.180
5.243000;1.1760;1.8163;-2.0310;2.968
5.253000;0.8525;1.4177;-2.1204;2.689
5.265000;0.4931;1.0264;-2.1985;2.476
5.273000;0.2225;0.6831;-2.2341;2.347
5.283000;0.0799;0.3573;-2.1588;2.190
5.293000;0.0083;0.1414;-1.8980;1.903
5.303000;-0.0163;0.0674;-1.4439;1.446
5.318000;0.0378;0.0870;-0.9621;0.967
5.323000;0.1383;0.1955;-0.4815;0.538
5.336000;0.2370;0.3477;-0.1490;0.446
5.343000;0.2972;0.4661;-0.0409;0.554
5.353000;0.3135;0.5362;-0.1598;0.641
5.365000;0.3206;0.5960;-0.3334;0.754
5.373000;0.2236;0.5850;-0.5661;0.844
5.383000;0.0272;0.5279;-0.8867;1.032
5.393000;-0.2063;0.4568;-1.1494;1.254
5.404000;-0.4470;0.4310;-1.2574;1.402
5.421000;-0.6002;0.4253;-1.0139;1.253
5.453000;-0.7726;0.4520;-0.8040;1.203
5.455000;-0.9584;0.4587;-0.4227;1.144
5.457000;-1.1451;0.4437;0.0829;1.231
5.458000;-1.3235;0.4031;0.6083;1.511
5.466000;-1.4159;0.3305;1.1652;1.863
5.473000;-1.4080;0.2766;1.7882;2.293
5.483000;-1.5468;0.1466;2.2866;2.765
5.493000;-1.6898;-0.1172;2.6463;3.142
5.503000;-1.6127;-0.5136;2.8412;3.307
5.519000;-1.3603;-0.7870;2.7788;3.192
5.523000;-1.0533;-0.8983;2.4153;2.784
5.545000;-0.8955;-0.9499;1.5663;2.039
5.549000;-0.9180;-0.8736;0.2135;1.285
5.553000;-0.9952;-0.5510;-1.4541;1.846
5.565000;-1.0590;-0.0694;-2.3726;2.599
5.573000;-0.8789;0.4671;-1.4775;1.781
5.584000;-0.3456;0.8756;0.7554;1.207
5.593000;0.3141;0.8870;3.1065;3.246
5.603000;0.7740;0.5484;4.8852;4.976
5.619000;0.9230;-0.0018;5.8945;5.966
5.623000;0.7943;-0.6082;5.9794;6.063
5.639000;0.4836;-1.1026;5.3603;5.494
5.644000;0.1220;-1.3569;4.4247;4.630
5.654000;-0.0636;-1.3497;3.3785;3.639
5.664000;-0.0107;-0.9965;2.4049;2.603
5.673000;0.0947;-0.5118;1.7608;1.836
5.684000;0.2310;-0.0741;1.3702;1.392
5.693000;0.3151;0.1374;1.0458;1.101
5.703000;0.3198;0.1230;0.7460;0.821
5.719000;0.1979;-0.1412;0.2816;0.372
5.723000;0.0158;-0.4914;-0.3618;0.610
5.740000;-0.1323;-0.8551;-1.0534;1.363
5.743000;-0.2269;-1.1193;-1.6479;2.005
5.753000;-0.1612;-1.2831;-1.9620;2.350
5.763000;-0.0816;-1.2321;-1.8687;2.240
5.773000;-0.0041;-1.1288;-1.6555;2.004
5.784000;-0.0359;-1.0288;-1.4995;1.819
5.793000;-0.1183;-0.9869;-1.3800;1.701
5.803000;-0.1766;-1.0396;-1.3773;1.735
5.813000;-0.2157;-1.0961;-1.6901;2.026
5.828000;-0.2769;-1.0269;-2.1505;2.399
5.844000;-0.3800;-0.8409;-2.4167;2.587
5.847000;-0.4702;-0.6270;-2.4296;2.553
5.853000;-0.5371;-0.4451;-2.2652;2.370
5.864000;-0.5681;-0.3095;-2.0565;2.156
5.873000;-0.5691;-0.1958;-1.8362;1.932
5.883000;-0.5730;-0.0985;-1.5468;1.652
5.893000;-0.5099;-0.0757;-1.2617;1.363
5.903000;-0.4028;-0.0923;-0.9829;1.066
5.914000;-0.2756;-0.0336;-0.5942;0.656
5.924000;-0.2145;0.0969;-0.1935;0.305
5.949000;-0.1500;0.2572;0.1475;0.332
5.950000;-0.1112;0.3984;0.3983;0.574
5.953000;-0.1278;0.4655;0.4620;0.668
5.963000;-0.1737;0.4871;0.3285;0.613
5.973000;-0.2091;0.5426;0.1165;0.593
5.983000;-0.1983;0.6902;-0.0042;0.718
5.993000;-0.1286;0.8560;0.0215;0.866
6.003000;-0.0443;1.0109;0.0670;1.014
6.014000;-0.0056;1.1352;0.0822;1.138
6.024000;-0.0266;1.1898;0.2577;1.218
6.053000;-0.0797;1.2090;0.3690;1.267
6.054000;-0.3091;1.0736;0.4239;1.195
6.055000;-0.5119;0.9110;0.5596;1.185
6.063000;-0.8063;0.6545;0.6005;1.200
6.074000;-1.0884;0.3684;0.5139;1.259
6.084000;-1.3989;-0.2239;0.5422;1.517
6.094000;-1.2926;-0.4096;0.8886;1.621
6.104000;-0.9905;-0.4302;1.4424;1.802
6.114000;-0.5670;-0.3077;2.1434;2.238
6.125000;-0.0966;-0.0055;2.8835;2.885
6.151000;0.3192;0.3972;3.4425;3.480
6.153000;0.6899;0.7495;3.6493;3.789
6.155000;0.9204;0.9319;3.5186;3.755
6.163000;0.9261;0.9440;3.4779;3.721
6.174000;0.7897;0.7893;3.5738;3.744
6.185000;0.6243;0.5039;3.7405;3.826
6.194000;0.5256;0.0921;3.7477;3.786
6.204000;0.5216;-0.4112;3.3415;3.407
6.214000;0.7060;-0.8253;2.4971;2.723
6.224000;0.9863;-1.0090;1.5325;2.083
6.255000;1.1882;-0.9416;0.5126;1.600
6.257000;1.2593;-0.6376;-0.4112;1.470
6.258000;1.2234;-0.2586;-1.0086;1.606
6.263000;1.2119;0.0514;-1.2060;1.710
6.273000;1.3693;0.2276;-1.0877;1.763
6.284000;1.5371;0.1843;-0.7428;1.717
6.293000;1.6813;-0.0424;-0.3850;1.725
6.303000;1.7632;-0.3728;-0.1056;1.805
6.313000;1.7907;-0.6906;0.0596;1.920
6.323000;1.6260;-0.9456;0.1389;1.886
6.345000;1.2548;-1.1269;0.1460;1.693
6.346000;0.7957;-1.1900;0.0625;1.433
6.353000;0.3123;-1.1541;-0.1123;1.201
6.363000;-0.2018;-1.1515;-0.2619;1.198
6.373000;-0.6518;-1.1944;-0.2794;1.389
6.384000;-1.0697;-1.2338;-0.2450;1.651
6.393000;-1.3520;-1.2981;-0.2367;1.889
6.403000;-1.5381;-1.3836;-0.3411;2.097
6.413000;-1.4259;-1.4256;-0.9793;2.242
6.424000;-1.1772;-1.1836;-1.5430;2.273
6.446000;-0.9749;-0.8710;-2.1439;2.511
6.448000;-0.7291;-0.4508;-2.5973;2.735
6.456000;-0.4841;0.0530;-2.8299;2.872
6.464000;-0.3268;0.5075;-2.8781;2.941
6.473000;-0.1719;0.9175;-2.7563;2.910
6.484000;-0.0158;1.2104;-2.4752;2.755
6.493000;0.1031;1.3472;-2.0731;2.475
6.504000;0.2415;1.2954;-1.6103;2.081
6.513000;0.3042;1.0545;-1.1932;1.621
6.524000;0.2583;0.7211;-0.8169;1.120
6.541000;0.1177;0.3796;-0.4372;0.591
6.543000;-0.0664;0.1403;-0.1550;0.219
6.553000;-0.2434;0.0124;-0.0009;0.244
6.563000;-0.4604;-0.0375;0.0367;0.463
6.573000;-0.6645;-0.0319;-0.0555;0.668
6.584000;-0.8705;-0.0117;-0.2994;0.921
6.593000;-1.0701;0.0275;-0.6097;1.232
6.604000;-1.2290;0.0984;-0.9002;1.527
6.613000;-1.3724;0.2204;-1.0942;1.769
6.623000;-1.4714;0.3668;-1.1815;1.922
6.647000;-1.5119;0.5034;-1.2040;1.997
6.649000;-1.4710;0.6790;-1.1604;1.993
6.657000;-1.3373;0.9402;-0.9094;1.871
6.663000;-1.1149;1.2079;-0.4653;1.708
6.673000;-0.8896;1.3743;0.0350;1.637
6.685000;-0.7487;1.4302;0.5053;1.692
6.693000;-0.6473;1.4332;1.0541;1.893
6.703000;-0.4595;1.4544;1.7087;2.290
6.714000;-0.1060;1.5303;2.3472;2.804
6.724000;0.3555;1.6065;2.7913;3.240
6.756000;0.8143;1.6221;2.9517;3.465
6.758000;1.1489;1.4536;2.4453;3.068
6.759000;0.9017;1.2103;1.6282;2.220
6.763000;0.4595;0.9240;0.6579;1.224
6.774000;0.0587;0.7936;-0.1717;0.814
6.785000;0.1382;0.9855;-0.7472;1.244
6.793000;0.8055;1.3755;-0.8943;1.828
6.803000;1.6591;1.7505;-0.3284;2.434
6.813000;2.2336;1.8474;0.9736;3.058
6.824000;2.3971;1.4057;2.3932;3.667
6.848000;2.0297;0.5205;3.4372;4.026
6.851000;1.3713;-0.6680;4.0149;4.295
6.854000;0.5452;-1.8509;4.2219;4.642
6.863000;-0.4622;-2.9115;4.1242;5.069
6.873000;-1.4142;-3.6150;3.8710;5.482
6.885000;-1.9786;-3.8623;3.5523;5.608
6.893000;-2.0669;-3.7307;3.0600;5.249
6.904000;-1.7711;-3.2060;2.3573;4.356
6.913000;-1.4796;-2.4777;1.5777;3.289
6.925000;-1.3247;-1.8719;0.7134;2.402
6.949000;-1.2489;-1.4294;-0.1176;1.902
6.951000;-1.1917;-1.1561;-0.7987;1.842
6.954000;-1.0876;-1.0756;-1.2676;1.987
6.963000;-0.8977;-1.1482;-1.5029;2.094
6.973000;-0.6719;-1.2576;-1.6130;2.153
6.985000;-0.4506;-1.2910;-1.6839;2.169
6.994000;-0.2676;-1.2232;-1.6702;2.087
7.004000;-0.1442;-1.0765;-1.6463;1.972
7.013000;-0.0123;-0.8599;-1.6305;1.843
7.025000;0.1901;-0.3919;-1.5709;1.630
7.054000;0.1934;-0.3877;-1.5729;1.631
7.055000;0.2198;-0.2015;-1.5873;1.615
7.056000;0.2283;-0.0426;-1.6464;1.663
7.063000;0.2107;0.0775;-1.7822;1.796
7.073000;0.0903;0.1904;-2.1822;2.192
7.084000;-0.3062;0.2619;-2.3761;2.410
7.093000;-0.4610;0.2788;-2.4044;2.464
7.103000;-0.5501;0.3345;-2.1659;2.260
7.114000;-0.5537;0.4558;-1.7127;1.857
7.125000;-0.5346;0.5672;-1.1843;1.418
7.161000;-0.5217;0.6569;-0.7489;1.125
7.162000;-0.5248;0.7110;-0.5094;1.020
7.163000;-0.5513;0.7283;-0.3627;0.983
7.164000;-0.6034;0.7444;-0.2330;0.986
7.174000;-0.6276;0.7408;-0.1156;0.978
7.185000;-0.6086;0.7701;-0.0224;0.982
7.193000;-0.5692;0.7993;0.0648;0.983
7.203000;-0.4348;0.8487;0.1635;0.968
7.213000;-0.2364;0.9478;0.2488;1.008
7.224000;-0.0047;1.0671;0.2851;1.105
7.249000;0.2373;1.1606;0.3554;1.237
7.251000;0.4294;1.2851;0.4068;1.415
7.253000;0.5448;1.3593;0.3308;1.501
7.263000;0.5851;1.3790;0.1672;1.507
7.274000;0.5012;1.2628;-0.1271;1.365
7.286000;0.3397;1.0684;-0.5037;1.229
7.293000;0.2485;0.8778;-0.7493;1.181
7.303000;0.2487;0.6984;-0.7152;1.030
7.313000;0.3514;0.5403;-0.4051;0.761
7.331000;0.4603;0.3481;0.0923;0.584
7.333000;0.5672;0.2134;0.7367;0.954
7.343000;0.7171;0.1573;1.4776;1.650
7.353000;0.8646;0.1306;2.1822;2.351
7.363000;1.0213;0.1485;2.6769;2.869
7.373000;1.1903;0.0998;2.7953;3.040
7.385000;1.3619;0.0200;2.4882;2.837
7.393000;1.4190;-0.1315;1.7137;2.229
7.404000;1.2686;-0.2490;0.8979;1.574
7.413000;0.9355;-0.3506;0.1817;1.015
7.427000;0.9890;-0.3517;0.3481;1.106
7.461000;1.1553;-0.2664;0.6924;1.373
7.463000;1.3530;-0.0688;0.9856;1.675
7.465000;1.5434;0.1691;1.0882;1.896
7.469000;1.7176;0.3243;1.0802;2.055
7.473000;1.8445;0.2675;0.9494;2.092
7.486000;1.8519;0.0170;0.7426;1.995
7.493000;1.6940;-0.3688;0.5533;1.820
7.503000;1.4390;-0.8182;0.4243;1.709
7.513000;1.2005;-1.2740;0.2612;1.770
7.525000;1.0299;-1.6416;-0.0079;1.938
7.548000;0.8427;-1.9188;-0.4032;2.134
7.552000;0.6477;-2.0530;-0.8853;2.328
7.556000;0.4516;-1.9679;-1.3006;2.402
7.563000;0.2814;-1.7233;-1.5464;2.332
7.573000;0.1128;-1.4481;-1.5192;2.102
7.585000;0.0051;-1.2413;-1.1380;1.684
7.593000;-0.0051;-1.1283;-0.4442;1.213
7.604000;0.0187;-1.1089;0.3908;1.176
7.613000;0.1031;-1.1285;1.0526;1.547
7.624000;0.1574;-1.2208;1.3478;1.825
7.649000;0.2167;-1.3103;1.2276;1.809
7.651000;0.3381;-1.2406;0.8946;1.566
7.653000;0.5633;-0.9576;0.5213;1.227
7.663000;0.8233;-0.5560;0.2038;1.014
7.673000;1.0837;-0.1012;-0.0973;1.093
7.685000;1.2518;0.3131;-0.3630;1.340
7.693000;1.3035;0.5953;-0.6040;1.555
7.704000;1.2472;0.7236;-0.9481;1.726
7.714000;1.1531;0.7544;-1.4614;2.009
7.725000;1.0302;0.7561;-2.0087;2.381
7.764000;0.9272;0.7467;-2.4577;2.731
7.766000;0.6702;0.7399;-2.7994;2.972
7.769000;0.5129;0.7288;-2.6135;2.761
7.770000;0.3135;0.7031;-2.1580;2.291
7.773000;0.0596;0.6362;-1.7123;1.828
7.785000;-0.0892;0.5584;-1.4502;1.557
7.793000;-0.1761;0.5076;-1.4099;1.509
7.805000;-0.2112;0.4810;-1.5166;1.605
7.813000;-0.2585;0.4920;-1.7071;1.795
7.824000;-0.3702;0.5886;-1.8105;1.939
7.854000;-0.4841;0.7628;-1.7292;1.951
7.855000;-0.5804;0.9779;-1.4885;1.873
7.856000;-0.6453;1.1710;-1.2493;1.830
7.863000;-0.6716;1.3068;-1.1100;1.841
7.873000;-0.6010;1.4417;-1.0798;1.899
7.883000;-0.5138;1.5668;-1.0129;1.935
7.894000;-0.4646;1.6741;-0.7776;1.903
7.905000;-0.4456;1.7859;-0.4605;1.897
7.913000;-0.4975;1.8503;-0.2062;1.927
7.924000;-0.6897;1.8326;-0.0975;1.961
7.942000;-0.8978;1.7175;-0.0532;1.939
7.945000;-1.0938;1.5593;0.0930;1.907
7.981000;-1.3176;1.4576;0.4463;2.015
7.983000;-1.3699;1.4070;0.9828;2.196
7.984000;-1.2837;1.3883;1.5926;2.472
7.986000;-1.1516;1.3432;1.9842;2.658
7.993000;-1.0607;1.2176;2.0090;2.578
8.003000;-0.9855;1.0403;1.7969;2.298
8.013000;-0.9271;0.8792;1.4671;1.946
8.025000;-0.9517;0.7008;1.0270;1.566
8.034000;-0.9574;0.5782;0.7649;1.355
8.050000;-0.9442;0.4094;1.1391;1.535
8.054000;-0.8636;0.1846;1.9996;2.186
8.063000;-0.7639;-0.0033;2.9114;3.010
8.073000;-0.7970;-0.3326;4.0866;4.177
8.083000;-1.0734;-0.6069;4.4998;4.666
8.093000;-1.2614;-0.9933;4.6203;4.891
8.103000;-1.2921;-1.3440;4.3128;4.699
8.113000;-1.2055;-1.5209;3.5820;4.074
8.123000;-1.1304;-1.5526;2.5195;3.168
8.134000;-1.1353;-1.4568;1.3773;2.304
8.153000;-1.2708;-1.2596;0.2438;1.806
8.156000;-1.3975;-0.9864;-0.6202;1.819
8.163000;-1.4386;-0.7238;-1.0040;1.898
8.173000;-1.2924;-0.5400;-0.9303;1.682
8.183000;-1.0865;-0.5249;-0.3469;1.255
8.193000;-0.8430;-0.6865;0.4213;1.166
8.204000;-0.7969;-0.9956;0.9971;1.619
8.213000;-0.8805;-1.4040;1.2303;2.064
8.227000;-0.9577;-1.7758;1.2255;2.361
8.234000;-1.0017;-2.1635;0.9513;2.567
8.261000;-0.9276;-2.3943;0.4698;2.610
8.264000;-0.7657;-2.4353;-0.1601;2.558
8.265000;-0.5408;-2.2505;-0.8723;2.473
8.273000;-0.2723;-1.8610;-1.3206;2.298
8.284000;-0.0662;-1.3478;-1.4846;2.006
8.293000;0.0889;-0.8469;-1.4253;1.660
8.303000;0.1662;-0.4786;-1.3237;1.417
8.313000;0.2493;-0.2151;-1.2726;1.315
8.325000;0.3314;-0.0667;-1.2993;1.343
8.369000;0.3826;-0.0218;-1.5021;1.550
8.371000;0.3691;0.0139;-1.7888;1.827
8.372000;0.3441;0.0951;-1.9226;1.955
8.373000;0.2606;0.1804;-1.9407;1.966
8.375000;0.1430;0.2548;-1.9612;1.983
8.383000;0.0693;0.3406;-1.9688;1.999
8.393000;0.0333;0.4079;-1.5965;1.648
8.404000;0.0734;0.4738;-1.3600;1.442
8.413000;0.2063;0.5391;-1.1538;1.290
8.423000;0.2258;0.5453;-0.9440;1.113
8.433000;0.1362;0.5510;-0.6743;0.881
8.457000;0.0490;0.5237;-0.4735;0.708
8.459000;0.0678;0.4984;-0.3467;0.611
8.464000;0.1688;0.5334;-0.2824;0.627
8.474000;0.4136;0.7150;-0.2318;0.858
8.483000;0.6976;0.9427;-0.2342;1.196
8.494000;0.9033;1.1545;-0.3736;1.513
8.504000;1.0383;1.3194;-0.6125;1.787
8.513000;1.0580;1.4633;-0.8679;2.003
8.524000;1.0131;1.4682;-1.2454;2.176
8.533000;0.9121;1.3581;-1.6193;2.302
8.544000;0.7866;1.1458;-1.7989;2.273
8.581000;0.6650;0.9016;-1.7471;2.075
8.583000;0.5606;0.6535;-1.5353;1.760
8.585000;0.5021;0.4974;-1.1573;1.356
8.586000;0.5102;0.4359;-0.6623;0.943
8.593000;0.6829;0.4772;-0.0251;0.833
8.604000;0.9459;0.4975;0.7268;1.292
8.613000;1.2267;0.4136;1.6279;2.080
8.624000;1.5050;0.2903;2.6181;3.034
8.661000;1.6360;0.1643;3.3995;3.776
8.664000;1.7289;0.0632;3.8409;4.213
8.665000;1.8560;-0.0523;4.0142;4.423
8.668000;2.0116;-0.2799;4.0653;4.544
8.683000;2.1532;-0.7306;4.6543;5.180
8.693000;1.8989;-0.8502;5.1001;5.508
8.704000;1.6032;-0.9478;5.3797;5.693
8.713000;1.2899;-1.0323;5.4754;5.719
8.724000;1.0362;-1.1524;5.4691;5.684
8.733000;0.9552;-1.3399;5.3617;5.609
8.757000;1.1188;-1.8133;4.3717;4.863
8.758000;1.2211;-1.8924;3.4227;4.097
8.763000;1.2224;-1.7879;2.3574;3.201
8.774000;1.1294;-1.6082;1.3115;2.363
8.783000;0.9928;-1.3401;0.4686;1.732
8.793000;0.8227;-1.0278;-0.1108;1.321
8.804000;0.6070;-0.8082;-0.5357;1.144
8.814000;0.3528;-0.7162;-0.9152;1.214
8.825000;0.0714;-0.7489;-1.2609;1.468
8.833000;-0.2445;-0.8913;-1.6445;1.886
8.844000;-0.5665;-1.0552;-2.1689;2.478
8.884000;-0.8955;-1.1709;-2.8171;3.180
8.886000;-1.1769;-1.2240;-3.4120;3.811
8.888000;-1.3601;-1.1112;-3.7602;4.150
8.890000;-1.4276;-0.8896;-3.9546;4.297
8.893000;-1.3427;-0.5867;-4.0036;4.263
8.904000;-1.1142;-0.2436;-3.8767;4.041
8.913000;-0.8582;0.1395;-3.5865;3.690
8.923000;-0.5764;0.5101;-3.1823;3.274
8.933000;-0.2989;0.8698;-2.8021;2.949
8.944000;-0.0633;1.2083;-2.3596;2.652
8.973000;0.1050;1.4209;-1.8312;2.320
8.975000;0.1863;1.4531;-1.3801;2.013
8.976000;0.1650;1.3577;-1.0892;1.748
8.983000;0.0177;1.1819;-0.9053;1.489
8.993000;-0.2552;0.9686;-0.7479;1.250
9.005000;-0.6136;0.7603;-0.5430;1.118
9.013000;-0.9302;0.5531;-0.3114;1.126
9.024000;-1.1210;0.3873;-0.1566;1.196
9.033000;-1.2712;0.2868;-0.1201;1.309
9.044000;-1.3442;0.3200;-0.1565;1.391
9.084000;-1.3017;0.4847;-0.2390;1.409
9.086000;-1.1355;0.7592;-0.4454;1.437
9.087000;-0.7032;1.3818;-1.1090;1.906
9.116000;-0.5811;1.6126;-1.4586;2.251
9.119000;-0.5103;1.7585;-1.7667;2.544
9.121000;-0.5151;1.9094;-2.0971;2.883
9.123000;-0.5223;2.0003;-2.3581;3.136
9.124000;-0.4147;1.8281;-2.3971;3.043
9.134000;-0.2306;1.7838;-2.3352;2.948
9.144000;-0.0450;1.7358;-2.1940;2.798
9.167000;0.1112;1.7170;-1.8675;2.539
9.169000;0.3219;1.7892;-1.3491;2.264
9.175000;0.4800;1.8304;-0.7693;2.043
9.183000;0.6188;1.8704;-0.0395;1.970
9.194000;0.7153;1.8957;0.8508;2.198
9.204000;0.7787;1.8075;1.6579;2.573
9.213000;0.7873;1.5141;2.2134;2.795
9.224000;0.8010;1.0428;2.5808;2.896
9.233000;0.8650;0.5193;2.8393;3.013
9.243000;0.8562;0.0091;3.0162;3.135
9.272000;0.6769;-0.4348;2.9769;3.084
9.275000;0.3466;-0.8014;2.7393;2.875
9.276000;-0.0489;-1.0783;2.4568;2.684
9.283000;-0.4414;-1.3015;2.1662;2.565
9.293000;-0.7904;-1.4188;1.8205;2.440
9.305000;-1.0434;-1.3912;1.3556;2.205
9.313000;-0.9922;-1.2217;1.1148;1.929
9.323000;-0.5149;-0.9980;1.8762;2.187
9.333000;0.1810;-0.8956;3.5364;3.653
9.344000;0.6377;-0.9254;5.0930;5.216
9.378000;0.6247;-1.1802;5.8907;6.040
9.380000;0.3631;-1.6187;5.9677;6.194
9.382000;0.0381;-2.0365;5.4926;5.858
9.384000;-0.1340;-2.3946;4.6857;5.264
9.393000;-0.0810;-2.5099;3.5671;4.362
9.405000;0.4278;-1.6937;1.4433;2.266
9.413000;0.5713;-1.0496;0.5175;1.302
9.423000;0.5743;-0.5256;-0.3084;0.837
9.433000;0.5361;-0.1703;-0.9303;1.087
9.444000;0.6050;0.0246;-1.3591;1.488
9.472000;0.6954;0.0798;-1.6777;1.818
9.475000;0.7080;0.0136;-1.8607;1.991
9.476000;0.6473;-0.2030;-1.8816;2.000
9.483000;0.5115;-0.4527;-1.8700;1.991
9.494000;0.4054;-0.6821;-2.0350;2.184
9.507000;0.2727;-0.8088;-2.2944;2.448
9.514000;0.0980;-0.8157;-2.5423;2.672
9.524000;-0.0800;-0.7423;-2.6913;2.793
9.534000;-0.1853;-0.6026;-2.7406;2.812
9.545000;-0.2758;-0.4545;-2.7521;2.803
9.583000;-0.3868;-0.3589;-2.7632;2.813
9.585000;-0.4417;-0.2648;-2.6945;2.743
9.587000;-0.4638;-0.1388;-2.5787;2.624
9.588000;-0.5211;-0.0326;-2.3559;2.413
9.595000;-0.6061;0.0737;-2.0707;2.159
9.605000;-0.7298;0.1761;-1.8584;2.004
9.613000;-0.8171;0.2752;-1.7634;1.963
9.623000;-0.8987;0.3649;-1.6810;1.941
9.633000;-0.9878;0.4439;-1.5716;1.909
9.643000;-1.0320;0.5380;-1.4079;1.827
9.681000;-1.0247;0.6380;-1.1370;1.658
9.684000;-0.9906;0.7098;-0.6970;1.404
9.685000;-0.9349;0.7546;-0.3223;1.244
9.687000;-0.7774;0.8207;-0.0709;1.133
9.697000;-0.5451;0.9081;0.2443;1.087
9.710000;-0.2962;1.0022;0.5710;1.191
9.713000;-0.0769;1.1149;0.8040;1.377
9.723000;0.1825;1.1960;0.9819;1.558
9.733000;0.8391;1.3290;1.0767;1.905
9.744000;1.0095;1.3899;1.0401;2.008
9.782000;1.0329;1.4332;1.1315;2.098
9.785000;0.9608;1.4068;1.2472;2.111
9.786000;0.8018;1.2955;1.3042;2.006
9.789000;0.5905;1.0767;1.2925;1.783
9.793000;0.3212;0.7653;1.1333;1.405
9.806000;0.0414;0.4063;0.8631;0.955
9.813000;-0.1929;0.0911;0.5950;0.632
9.823000;-0.3408;-0.0778;0.4357;0.559
9.833000;-0.3815;-0.0473;0.5308;0.655
9.843000;-0.3516;0.1432;0.9413;1.015
9.873000;-0.2031;0.4462;1.5009;1.579
9.875000;0.0087;0.6972;2.0037;2.122
9.876000;0.2472;0.8185;2.2847;2.439
9.883000;0.4439;0.7934;2.4156;2.581
9.893000;0.6097;0.5971;2.2243;2.382
9.903000;0.6175;0.3311;1.6422;1.785
9.913000;0.5650;0.0568;0.9883;1.140
9.928000;0.6223;-0.1465;0.6483;0.911
9.933000;0.6517;-0.2368;0.6402;0.944
9.960000;0.6201;-0.3021;0.6456;0.945
9.961000;0.4950;-0.3856;0.4511;0.773
9.964000;0.3030;-0.4917;0.2094;0.614
9.973000;0.1477;-0.6292;-0.0105;0.646
9.983000;0.1068;-0.8168;-0.1224;0.833
9.993000;0.2213;-1.0139;-0.2268;1.062
10.003000;0.3996;-1.2168;-0.2522;1.305
10.013000;0.5737;-1.3985;0.1077;1.515
10.027000;0.8100;-1.5338;1.0425;2.024
10.033000;1.0942;-1.6222;2.3235;3.038
10.064000;1.4733;-1.7353;3.3569;4.056
10.066000;1.8404;-1.8558;3.7897;4.604
10.068000;2.1214;-2.2058;2.9257;4.234
10.074000;1.8995;-2.3212;1.9169;3.560
10.085000;1.5873;-2.3495;0.7773;2.940
10.093000;1.1874;-2.2475;-0.2886;2.558
10.106000;0.8053;-2.1439;-0.8633;2.447
10.113000;0.3243;-2.0443;-0.8918;2.254
10.123000;0.0346;-1.9733;-0.7109;2.098
10.135000;-0.1479;-1.9907;-0.6341;2.094
10.144000;-0.2502;-2.0109;-0.8263;2.188
10.191000;-0.2294;-1.9902;-1.2877;2.382
10.193000;-0.2707;-1.9342;-1.9950;2.792
10.195000;-0.2353;-1.7785;-2.7915;3.318
10.196000;-0.1896;-1.5222;-3.5059;3.827
10.198000;-0.1114;-1.1667;-4.1360;4.299
10.203000;-0.0721;-0.7620;-4.6351;4.698
10.213000;-0.0500;-0.3465;-4.8531;4.866
10.226000;0.0497;0.0978;-4.6850;4.686
10.233000;0.1547;0.5206;-4.2480;4.283
10.259000;0.4336;0.9580;-3.5354;3.688
10.261000;0.7942;1.4051;-2.7555;3.193
10.263000;1.1537;1.7599;-2.2583;3.087
10.273000;1.4002;2.0101;-1.9845;3.153
10.283000;1.4889;2.1786;-1.6819;3.129
10.293000;1.4965;2.2804;-1.3679;3.051
10.303000;1.4472;2.2895;-1.1370;2.937
10.313000;1.3470;2.2480;-0.9685;2.794
10.326000;1.2732;2.3278;-0.6548;2.733
10.333000;1.1708;2.4760;-0.3517;2.761
10.367000;1.0047;2.6054;-0.3479;2.814
10.370000;0.6934;2.6483;-0.5171;2.786
10.373000;0.2417;2.5789;-0.6462;2.670
10.375000;-0.2155;2.4451;-0.5415;2.514
10.384000;-0.4991;2.2974;-0.1909;2.359
10.393000;-0.5715;2.1838;0.3491;2.284
10.403000;-0.5155;2.0522;1.1132;2.391
10.413000;-0.6015;2.0162;1.1535;2.399
10.426000;-0.7111;1.9665;1.1055;2.365
10.433000;-0.7943;1.9088;1.0456;2.317
10.465000;-0.8349;1.7911;1.2101;2.317
10.466000;-0.7855;1.5898;1.5281;2.341
10.467000;-0.5757;1.4084;2.1390;2.625
10.474000;-0.2698;1.2201;2.7925;3.059
10.483000;-0.1042;1.0043;3.3978;3.545
10.494000;-0.1696;0.7490;3.6846;3.764
10.503000;-0.4673;0.3816;3.2636;3.319
10.513000;-0.9802;-0.0881;2.2022;2.412
10.527000;-1.5612;-0.5438;0.9583;1.911
10.533000;-2.1166;-0.8645;-0.0181;2.286
10.561000;-2.5371;-1.0906;-0.8210;2.881
10.562000;-2.6792;-1.2635;-1.3962;3.275
10.564000;-2.5067;-1.3391;-1.3362;3.140
10.573000;-2.2159;-1.3583;-0.4482;2.637
10.583000;-1.9262;-1.4122;0.7864;2.515
10.593000;-1.5968;-1.6313;1.8805;2.958
10.603000;-1.1274;-1.9311;2.5930;3.424
10.613000;-0.5561;-2.0472;2.9327;3.620
10.627000;-0.0742;-2.0127;2.8664;3.503
10.633000;0.1931;-1.7909;2.3415;2.954
10.672000;0.2619;-1.3847;1.5341;2.083
10.675000;0.0952;-0.9283;0.6937;1.163
10.676000;-0.1513;-0.5614;0.2094;0.618
10.677000;-0.3428;-0.3311;0.2774;0.551
10.683000;-0.4782;-0.3107;0.6439;0.860
10.693000;-0.4934;-0.4937;1.0304;1.245
10.703000;-0.3950;-0.6826;1.1438;1.389
10.713000;-0.3279;-0.8249;1.0480;1.373
10.728000;-0.2429;-1.0227;0.7575;1.296
10.733000;0.1229;-1.2301;-0.2089;1.254
10.768000;0.3291;-1.1838;-0.7779;1.454
10.769000;0.3983;-1.0935;-1.3693;1.797
10.770000;0.3955;-0.9527;-2.0066;2.256
10.777000;0.3421;-0.8232;-2.6265;2.774
10.785000;0.2504;-0.7493;-3.2015;3.298
10.794000;0.1560;-0.6744;-3.5987;3.665
10.803000;0.0952;-0.5416;-3.7332;3.774
10.814000;0.0413;-0.3602;-3.6604;3.678
10.831000;-0.0550;-0.1356;-3.4135;3.417
10.836000;-0.1727;0.0582;-2.9103;2.916
10.878000;-0.2798;0.1516;-2.2469;2.269
10.880000;-0.3391;0.1854;-1.5098;1.558
10.881000;-0.3511;0.1711;-0.6942;0.797
10.882000;-0.3247;0.1124;0.0171;0.344
10.883000;-0.2461;0.0552;0.5533;0.608
10.893000;-0.0972;0.0253;0.9203;0.926
10.903000;0.0895;0.0766;1.1268;1.133
10.913000;0.2679;0.1999;1.4051;1.444
10.927000;0.4785;0.3510;1.6604;1.763
10.933000;0.6966;0.4900;1.7126;1.913
10.970000;0.8346;0.5965;1.5048;1.821
10.972000;0.9528;0.7109;1.1932;1.684
10.973000;1.0245;0.7639;0.8478;1.534
10.974000;1.0733;0.7409;0.4702;1.386
10.983000;0.9989;0.6054;0.0680;1.170
10.993000;0.7439;0.4515;-0.2689;0.911
11.003000;0.3543;0.2268;-0.6137;0.744
11.014000;-0.0873;-0.0045;-0.9234;0.928
11.030000;-0.5976;-0.2295;-0.9357;1.134
11.034000;-1.0037;-0.4471;-0.5775;1.241
11.078000;-1.1927;-0.6472;0.1947;1.371
11.080000;-1.0794;-0.6403;1.2644;1.782
11.081000;-0.0806;-0.4427;3.0122;3.046
11.083000;0.3180;-0.4413;3.0180;3.067
11.085000;0.7061;-0.4760;2.6934;2.825
11.093000;1.1262;-0.4360;2.2866;2.586
11.103000;1.5367;-0.2497;1.8314;2.404
11.113000;1.8827;0.0759;1.4890;2.402
11.127000;2.0567;0.5722;1.4844;2.600
11.133000;2.0331;1.0940;2.0388;3.080
11.155000;1.8779;1.3511;3.0009;3.789
11.157000;1.7549;1.1811;3.8051;4.354
11.163000;1.5630;0.6583;4.2144;4.543
11.175000;1.3390;-0.0501;4.2859;4.490
11.183000;1.1219;-0.7330;4.0763;4.291
11.193000;0.9292;-1.3288;3.5036;3.861
11.203000;0.8371;-1.7432;2.6415;3.274
11.213000;0.8744;-1.9137;1.5375;2.606
11.226000;0.9412;-1.8022;0.4232;2.077
11.233000;0.8997;-1.5454;-0.3655;1.825
11.256000;0.8044;-1.2049;-0.8219;1.666
11.258000;0.6997;-0.8667;-0.9764;1.481
11.263000;0.5838;-0.6358;-1.0108;1.329
11.274000;0.4331;-0.5454;-1.0823;1.287
11.283000;0.2719;-0.5493;-1.1563;1.309
11.293000;0.0751;-0.5889;-1.2595;1.392
11.303000;-0.1619;-0.6651;-1.5764;1.719
11.313000;-0.3807;-0.6874;-2.0840;2.227
11.328000;-0.5477;-0.6415;-2.6254;2.758
11.333000;-0.6743;-0.5103;-2.9914;3.109
11.371000;-0.7313;-0.2891;-3.1248;3.222
11.373000;-0.7370;-0.0209;-3.0963;3.183
11.374000;-0.6403;0.2730;-3.0091;3.089
11.376000;-0.5124;0.5903;-2.8160;2.922
11.383000;-0.4008;0.8850;-2.5209;2.702
11.393000;-0.3151;1.1214;-1.9834;2.300
11.403000;-0.2547;1.4010;-1.8088;2.302
11.413000;-0.3845;1.3767;-1.7404;2.252
11.431000;-0.5742;1.2752;-1.6745;2.182
11.435000;-0.8026;1.1149;-1.5191;2.048
11.496000;-1.0107;0.9320;-1.3396;1.920
11.497000;-1.2046;0.7644;-1.2087;1.870
11.498000;-1.3323;0.6681;-1.1581;1.887
11.499000;-1.3711;0.6632;-1.0621;1.857
11.500000;-1.2610;0.7772;-0.7863;1.677
11.500000;-1.0476;0.9927;-0.4641;1.516
11.503000;-0.8297;1.2278;-0.2254;1.499
11.513000;-0.6542;1.4379;-0.1338;1.585
11.529000;-0.5034;1.5790;-0.2174;1.672
11.577000;-0.3830;1.7740;-0.4381;1.867
11.578000;-0.2735;1.7245;-0.5194;1.822
11.579000;-0.1490;1.6108;-0.5923;1.723
11.581000;-0.0376;1.4363;-0.5831;1.551
11.584000;0.0662;1.3048;-0.3858;1.362
11.593000;0.2815;1.2812;0.0641;1.313
11.603000;0.6059;1.4393;1.0098;1.860
11.613000;0.9844;1.6527;2.2456;2.957
11.630000;1.2871;1.8101;3.4664;4.117
11.634000;1.4301;1.7977;4.3419;4.912
11.668000;1.4048;1.5779;4.6957;5.149
11.670000;1.2745;1.1618;4.4650;4.786
11.672000;0.9700;0.6672;3.8053;3.983
11.675000;0.5401;0.1658;2.9231;2.977
11.684000;0.1165;-0.1481;2.2879;2.296
11.693000;-0.3079;-0.2659;1.8687;1.913
11.703000;-0.7846;-0.3314;1.6410;1.849
11.713000;-1.1197;-0.4468;1.7394;2.116
11.732000;-1.2003;-0.6031;3.0606;3.342
11.772000;-0.5946;-0.8863;3.5826;3.738
11.776000;-0.2362;-1.0371;3.4881;3.647
11.777000;-0.0407;-1.1515;2.8706;3.093
11.780000;0.0364;-1.1584;2.0170;2.326
11.781000;0.0903;-1.0743;1.1794;1.598
11.783000;0.2106;-0.9389;0.4849;1.078
11.794000;0.3089;-0.8335;-0.1195;0.897
11.803000;0.3354;-0.7694;-0.6721;1.075
11.814000;0.2566;-0.7415;-1.1320;1.377
11.830000;0.1504;-0.7567;-1.3805;1.581
11.833000;0.0086;-0.7641;-1.3779;1.576
11.878000;-0.0882;-0.8172;-1.2504;1.496
11.880000;-0.1292;-0.9344;-1.0858;1.438
11.881000;-0.1221;-1.0803;-0.8836;1.401
11.882000;-0.1373;-1.2287;-0.8415;1.496
11.884000;-0.1447;-1.3148;-0.8990;1.599
11.893000;-0.1089;-1.3063;-1.0907;1.705
11.903000;-0.0502;-1.2417;-1.4507;1.910
11.913000;0.0017;-1.1412;-1.8560;2.179
11.929000;0.0034;-0.9959;-2.2259;2.439
11.933000;-0.0252;-0.8236;-2.4765;2.610
11.971000;-0.1562;-0.6547;-2.6103;2.696
11.974000;-0.3620;-0.5154;-2.6120;2.687
11.976000;-0.6057;-0.3905;-2.5269;2.628
11.977000;-0.8471;-0.3346;-2.3545;2.525
11.983000;-1.0539;-0.3782;-2.1120;2.391
11.994000;-1.2257;-0.4222;-1.8738;2.279
12.004000;-1.3226;-0.4381;-1.5578;2.090
12.014000;-1.3605;-0.3772;-1.2895;1.912
12.023000;-1.3410;-0.2322;-1.0615;1.726
12.034000;-1.2467;-0.0647;-0.8812;1.528
12.070000;-1.1488;0.1198;-0.7612;1.383
12.072000;-0.9606;0.3435;-0.6733;1.222
12.074000;-0.4899;0.7276;-0.5148;1.017
12.075000;-0.2561;0.8080;-0.4976;0.983
12.084000;-0.0221;0.8213;-0.5436;0.985
12.093000;0.1878;0.7987;-0.5384;0.981
12.103000;0.2868;0.7905;-0.3775;0.922
12.113000;0.3442;0.7582;-0.0308;0.833
12.123000;0.3996;0.6590;0.3790;0.859
12.134000;0.4148;0.4879;0.7634;0.996
12.177000;0.3986;0.2201;0.9331;1.038
12.178000;0.4027;-0.0846;0.8745;0.966
12.180000;0.3974;-0.3403;0.7627;0.925
12.180000;0.4003;-0.4967;0.8013;1.024
12.183000;0.3928;-0.5524;1.0249;1.229
12.193000;0.4005;-0.4755;1.6454;1.759
12.203000;0.4719;-0.2804;2.7692;2.823
12.213000;0.6407;-0.2320;4.0593;4.116
12.223000;1.0933;-0.3236;4.9647;5.094
12.234000;1.6642;-0.5230;5.0624;5.354
12.269000;2.0169;-0.8157;4.3629;4.875
12.271000;1.9524;-1.0375;3.2888;3.963
12.273000;1.5888;-1.0900;2.1539;2.890
12.275000;1.1514;-1.0006;1.2529;1.974
12.283000;0.8458;-0.7786;0.7441;1.369
12.293000;0.6710;-0.5132;0.7889;1.156
12.303000;0.5506;-0.3878;1.3524;1.511
12.313000;0.4808;-0.4749;2.0427;2.152
12.324000;0.3969;-0.7162;2.4681;2.600
12.334000;0.2783;-1.0340;2.5817;2.795
12.363000;0.2622;-1.3095;2.4887;2.824
12.365000;0.3021;-1.6371;2.2279;2.781
12.366000;0.3566;-1.9319;1.7197;2.611
12.373000;0.3790;-2.0859;1.0452;2.364
12.384000;0.2867;-2.0303;0.2694;2.068
12.394000;-0.1684;-1.3198;-0.8504;1.579
12.403000;-0.1212;-0.9526;-1.1388;1.490
12.413000;0.1817;-0.6320;-1.3781;1.527
12.424000;0.5479;-0.3576;-1.6703;1.794
12.434000;0.8069;-0.1228;-2.1079;2.260
12.471000;0.9142;0.0781;-2.6174;2.774
12.473000;0.9124;0.1770;-3.2373;3.368
12.476000;0.7615;0.1400;-3.9011;3.977
12.477000;0.4344;0.0269;-4.4591;4.480
12.483000;-0.0676;-0.1585;-4.8219;4.825
12.493000;-0.6568;-0.3181;-4.8629;4.917
12.503000;-1.2060;-0.4442;-4.6045;4.780
12.513000;-1.5334;-0.5950;-4.0737;4.393
12.523000;-1.5043;-0.6874;-3.2510;3.648
12.534000;-1.0894;-0.6918;-2.4086;2.732
12.579000;-0.4470;-0.6203;-1.4980;1.682
12.581000;0.3493;-0.4287;-0.5477;0.778
12.581000;1.0776;-0.1620;0.2708;1.123
12.582000;1.5437;0.0324;0.5859;1.651
12.583000;1.7188;0.1635;0.3879;1.770
12.594000;1.5628;0.2560;-0.0425;1.584
12.603000;1.2396;0.3558;-0.3183;1.328
12.613000;0.9497;0.4441;-0.4595;1.145
12.623000;0.7426;0.5273;-0.5559;1.067
12.633000;0.6342;0.6474;-0.7671;1.187
12.676000;0.5513;0.8345;-1.0755;1.469
12.678000;0.5805;1.1328;-1.3140;1.829
12.679000;0.6387;1.5415;-1.4284;2.196
12.680000;0.6696;1.9853;-1.4724;2.561
12.683000;0.7519;2.4508;-1.4946;2.967
12.693000;0.8273;2.9028;-1.4210;3.336
12.703000;0.7440;3.2910;-1.2286;3.591
12.713000;0.4433;3.4958;-0.9034;3.638
12.723000;-0.4120;3.0451;0.1119;3.075
12.733000;-0.6980;2.6382;1.0131;2.911
12.777000;-0.8573;2.2240;2.0790;3.163
12.778000;-0.9156;1.8620;3.1405;3.764
12.796000;-0.9564;1.6604;4.0176;4.451
12.798000;-1.0439;1.4815;4.3280;4.692
12.800000;-1.1444;1.3570;3.8360;4.227
12.801000;-1.2581;1.2972;2.9633;3.471
12.803000;-1.5254;1.3543;2.2488;3.036
12.813000;-1.6570;1.5531;1.7793;2.885
12.823000;-1.6982;1.6600;1.5738;2.849
12.834000;-1.6751;1.6637;1.9263;3.047
12.865000;-1.6320;1.4939;2.9955;3.724
12.867000;-1.4982;1.0872;4.3057;4.687
12.868000;-1.3165;0.5514;5.3741;5.560
12.873000;-1.1315;-0.0973;5.9534;6.061
12.883000;-0.9431;-0.6687;5.8118;5.926
12.894000;-0.8492;-1.0357;5.0086;5.185
12.903000;-0.8776;-1.1989;3.6748;3.964
12.913000;-0.9137;-1.0845;2.2910;2.694
12.923000;-0.8713;-0.8692;0.9905;1.580
12.933000;-0.7774;-0.6747;-0.1582;1.041
12.965000;-0.6784;-0.5155;-1.1060;1.396
12.967000;-0.5997;-0.3646;-1.8498;1.978
12.968000;-0.4767;-0.2658;-2.3043;2.368
12.973000;-0.3468;-0.2497;-2.3490;2.388
12.983000;-0.2506;-0.3397;-2.1403;2.182
12.995000;-0.2338;-0.6073;-1.7113;1.831
13.003000;-0.1363;-0.9835;-1.2515;1.597
13.013000;0.0014;-1.2905;-0.9681;1.613
13.023000;0.1262;-1.4664;-0.8446;1.697
13.033000;0.2445;-1.5344;-0.9865;1.840
13.068000;0.2682;-1.5158;-1.3560;2.051
13.070000;0.1069;-1.1347;-2.2234;2.499
13.071000;-0.0874;-1.0400;-2.6142;2.815
13.073000;-0.2832;-0.9915;-2.8070;2.990
13.083000;-0.4565;-0.9496;-2.8656;3.053
13.093000;-0.6226;-0.9118;-2.7223;2.938
13.103000;-0.7001;-0.8729;-2.4272;2.673
13.113000;-0.6690;-0.8477;-2.1413;2.398
13.123000;-0.6659;-0.8653;-1.9624;2.246
13.133000;-0.6717;-0.8828;-1.8854;2.188
13.169000;-0.7179;-0.8639;-1.9028;2.210
13.170000;-0.7556;-0.8249;-1.8650;2.175
13.172000;-0.7482;-0.8129;-1.6611;1.995
13.173000;-0.7370;-0.7942;-1.2062;1.621
13.183000;-0.7693;-0.8372;-0.5839;1.278
13.194000;-0.7874;-0.9790;0.0894;1.260
13.204000;-0.7033;-1.1125;0.5780;1.437
13.213000;-0.4240;-1.0622;0.7502;1.368
13.223000;0.0008;-0.9010;0.8409;1.232
13.235000;0.4715;-0.6421;0.9003;1.202
13.278000;0.8722;-0.3640;1.0383;1.404
13.280000;1.0668;-0.0835;1.2451;1.642
13.281000;1.0182;0.0960;1.3762;1.715
13.282000;0.7872;0.1618;1.6440;1.830
13.283000;0.4756;0.0927;2.2088;2.261
13.294000;0.2516;0.0043;3.1440;3.154
13.303000;0.2391;-0.0508;4.2131;4.220
13.313000;0.3711;-0.0138;5.1058;5.119
13.323000;0.6635;0.1209;5.5665;5.607
13.333000;1.0419;0.3619;5.5724;5.681
13.369000;1.1059;0.5999;5.5957;5.735
13.371000;0.8817;0.7435;5.9035;6.015
13.373000;0.5808;0.7715;6.2895;6.363
13.375000;0.2657;0.6010;6.2265;6.261
13.383000;-0.0431;0.2371;4.5917;4.598
13.395000;-0.5854;-0.5790;3.5003;3.596
13.404000;-0.6489;-0.9481;2.6259;2.866
13.413000;-0.5415;-1.2257;1.9970;2.405
13.423000;-0.2885;-1.3572;1.5547;2.084
13.437000;-0.0075;-1.4650;1.0744;1.817
13.490000;0.3146;-1.4845;0.4970;1.597
13.494000;0.6790;-1.4549;-0.1729;1.615
13.496000;1.0467;-1.3274;-0.8663;1.899
13.498000;1.3495;-1.1371;-1.4447;2.281
13.499000;1.6002;-0.9088;-1.9928;2.713
13.501000;1.7440;-0.6433;-2.5737;3.175
13.504000;1.7049;-0.4139;-3.1898;3.640
13.513000;1.4473;-0.2732;-3.7657;4.044
13.523000;1.0741;-0.2486;-4.1533;4.297
13.533000;0.7001;-0.3339;-4.2131;4.284
13.578000;0.3677;-0.5778;-3.9889;4.047
13.580000;0.1278;-0.8428;-3.6584;3.756
13.582000;-0.0761;-1.0640;-3.4548;3.616
13.584000;-0.2587;-1.1089;-3.3656;3.553
13.586000;-0.4102;-0.9625;-3.1004;3.272
13.595000;-0.3866;-0.7110;-2.5880;2.712
13.603000;-0.1680;-0.3582;-1.9743;2.014
13.613000;0.0655;-0.0784;-1.5967;1.600
13.623000;0.1964;0.2114;-1.6002;1.626
13.634000;0.1941;0.5263;-1.6281;1.722
13.678000;0.1148;0.8347;-1.4789;1.702
13.680000;0.1085;1.1101;-1.1560;1.606
13.681000;0.2473;1.3712;-0.9115;1.665
13.682000;0.4437;1.5408;-0.8858;1.832
13.683000;0.6150;1.7239;-0.9509;2.063
13.695000;0.6889;1.8015;-0.7816;2.081
13.703000;0.7184;1.7934;-0.4371;1.981
13.713000;0.7299;1.6795;-0.1774;1.840
13.723000;0.4031;1.2692;-0.6025;1.462
13.734000;0.0885;1.2143;-0.9189;1.525
13.743000;-0.2283;1.1747;-1.1141;1.635
13.778000;-0.5382;1.1313;-1.3195;1.819
13.780000;-0.8724;1.1731;-1.3444;1.986
13.782000;-1.1909;1.1876;-1.3399;2.150
13.783000;-1.4657;1.1081;-1.3890;2.303
13.794000;-1.5710;0.9594;-1.4868;2.366
13.803000;-1.4659;0.6971;-1.7323;2.374
13.813000;-1.1773;0.4669;-2.0865;2.441
13.823000;-0.8554;0.3510;-2.3054;2.484
13.837000;-0.5965;0.3060;-2.2955;2.391
13.880000;-0.4923;0.1709;-2.3388;2.396
13.882000;-0.6083;-0.0442;-2.8030;2.869
13.884000;-1.0046;-0.3060;-3.4075;3.566
13.885000;-1.7329;-0.6044;-3.3964;3.861
13.886000;-2.3400;-0.9508;-2.3150;3.426
13.894000;-2.4557;-1.3144;-0.7083;2.874
13.903000;-2.1936;-1.6557;0.8809;2.886
13.914000;-1.7449;-1.9991;2.3841;3.567
13.923000;-1.2754;-2.2655;3.8305;4.629
13.933000;-0.7640;-2.3987;4.8188;5.437
13.949000;-0.2755;-2.4674;5.1371;5.706
13.953000;0.1777;-2.4036;4.7226;5.302
13.987000;0.4821;-2.1310;3.8344;4.413
13.989000;0.6126;-1.7159;2.9198;3.442
13.991000;0.6536;-1.3322;1.9775;2.472
13.997000;0.6772;-0.9249;1.0346;1.544
14.003000;0.5374;-0.6239;0.1343;0.834
14.013000;0.3279;-0.4237;-0.3571;0.644
14.023000;0.1739;-0.3057;-0.2142;0.412
14.033000;0.1655;-0.2911;0.2877;0.441
14.048000;0.2421;-0.4498;0.6109;0.796
14.053000;0.4806;-0.9516;0.1199;1.073
14.088000;0.5626;-1.0027;-0.5071;1.257
14.089000;0.6411;-0.9492;-1.2094;1.666
14.090000;0.7588;-0.7597;-1.6906;2.003
14.097000;0.9431;-0.4612;-1.7348;2.028
14.103000;1.1340;-0.1289;-1.5066;1.890
14.113000;1.3015;0.2265;-1.1954;1.782
14.123000;1.3574;0.5221;-0.7977;1.659
14.133000;1.2886;0.6615;-0.5799;1.560
14.143000;1.1034;0.6433;-0.6347;1.426
14.153000;0.8977;0.5095;-0.8496;1.337
14.189000;0.6833;0.3281;-1.1328;1.363
14.191000;0.4221;0.1660;-1.3774;1.450
14.192000;0.2366;0.1289;-1.4214;1.447
14.194000;0.1990;0.2063;-1.1809;1.215
14.203000;0.2854;0.3196;-0.7691;0.880
14.213000;0.4126;0.4214;-0.3257;0.674
14.223000;0.5018;0.4855;-0.0164;0.698
14.233000;0.4721;0.4279;-0.1101;0.647
14.243000;0.3463;0.2323;-0.6330;0.758
14.254000;0.2266;0.0444;-1.2099;1.232
14.291000;0.1125;-0.0405;-1.3254;1.331
14.293000;0.0830;-0.0844;-0.6076;0.619
14.294000;0.3293;-0.1350;0.9125;0.979
14.295000;0.7552;-0.1273;2.4608;2.577
14.303000;1.2532;-0.1714;3.6548;3.867
14.313000;1.7080;-0.2354;4.3295;4.660
14.323000;2.0245;-0.2153;4.4835;4.924
14.333000;2.1058;-0.1791;4.2556;4.751
14.343000;1.9489;0.0092;3.9671;4.420
14.355000;1.5654;0.3048;3.8566;4.173
14.392000;1.1883;0.5054;3.7930;4.007
14.395000;0.9445;0.4462;3.6502;3.797
14.396000;0.8078;-0.2877;3.2393;3.351
14.397000;0.7250;-0.5956;2.6205;2.783
14.403000;0.6050;-0.7387;1.7917;2.030
14.413000;0.4388;-0.7586;0.9813;1.316
14.423000;0.1591;-0.7341;0.2451;0.790
14.433000;-0.2232;-0.7992;-0.2224;0.859
14.444000;-0.6381;-0.9661;-0.2958;1.195
14.454000;-0.9847;-1.2957;-0.0255;1.628
14.493000;-1.0954;-1.7231;0.3780;2.076
14.494000;-1.0208;-2.0563;0.8207;2.438
14.495000;-0.7466;-2.2366;1.2632;2.675
14.496000;-0.3476;-2.2454;1.7001;2.838
14.503000;0.0379;-2.1427;1.9282;2.883
14.513000;0.4379;-1.8625;1.8776;2.681
14.524000;0.8848;-1.4006;1.5748;2.286
14.534000;1.2732;-0.8149;1.0306;1.830
14.544000;1.4149;-0.3596;0.2991;1.490
14.556000;1.3279;-0.0825;-0.5017;1.422
14.597000;0.9794;0.0960;-1.0095;1.410
14.599000;0.4909;0.1636;-1.0482;1.169
14.600000;0.0190;0.1053;-0.8100;0.817
14.600000;-0.3813;-0.1300;-0.6564;0.770
14.604000;-0.6995;-0.3996;-0.7522;1.102
14.614000;-0.9509;-0.5649;-1.0366;1.516
14.623000;-1.1679;-0.5917;-1.4890;1.983
14.633000;-1.3411;-0.5062;-2.0472;2.499
14.643000;-1.4010;-0.2649;-2.5255;2.900
14.654000;-1.3967;0.0713;-2.7789;3.111
14.689000;-1.3559;0.4431;-2.7914;3.135
14.690000;-1.3556;0.7820;-2.6808;3.104
14.692000;-1.3336;1.0508;-2.5991;3.105
14.695000;-1.2770;1.3175;-2.4139;3.032
14.704000;-1.3051;1.4803;-2.1264;2.901
14.713000;-1.4294;1.5510;-1.6808;2.697
14.723000;-1.7083;1.2371;-1.6732;2.692
14.733000;-1.8073;1.0131;-1.5975;2.616
14.743000;-1.8959;0.8569;-1.4207;2.519
14.754000;-1.8566;0.7960;-1.2566;2.379
14.799000;-1.6483;0.8421;-1.1425;2.175
14.801000;-1.3563;1.0404;-0.9885;1.975
14.801000;-1.0638;1.3420;-0.8028;1.891
14.802000;-0.8375;1.5894;-0.7370;1.942
14.804000;-0.6808;1.7347;-0.7859;2.022
14.813000;-0.6716;1.7286;-0.7900;2.016
14.823000;-0.7704;1.6446;-0.5628;1.901
14.834000;-0.8097;1.5388;-0.0732;1.740
14.843000;-0.7885;1.3756;0.6100;1.699
14.853000;-0.6291;1.2165;1.4068;1.963
14.889000;-0.3639;1.0502;2.2633;2.522
14.891000;-0.0129;0.8923;3.0048;3.135
14.892000;0.3241;0.8209;3.7572;3.859
14.897000;0.6659;0.6822;4.3562;4.459
14.903000;0.9865;0.4998;4.5787;4.710
14.914000;1.2784;0.2579;4.1629;4.362
14.923000;1.3180;-0.0036;3.1886;3.450
14.933000;1.0355;-0.2690;1.7250;2.030
14.943000;0.6322;-0.3585;0.1684;0.746
14.953000;0.0981;-0.3224;-0.9868;1.043
14.996000;-0.3785;-0.1170;-0.9181;1.000
14.998000;-0.5454;0.0042;0.4652;0.717
14.999000;-0.3419;-0.1133;2.3622;2.389
15.000000;-0.1225;-0.5249;3.7409;3.780
15.003000;-0.0640;-1.2197;4.6024;4.762
15.014000;-0.0568;-1.8755;4.8445;5.195
15.023000;-0.0566;-2.4166;4.5019;5.110
15.034000;-0.1685;-2.8323;3.5591;4.552
15.043000;-0.2400;-2.9040;0.7221;3.002
15.054000;-0.2405;-2.0490;-0.6079;2.151
15.112000;-0.2648;-1.5494;-1.4963;2.170
15.115000;-0.2976;-1.1236;-2.0683;2.372
15.116000;-0.3396;-0.8418;-2.4146;2.580
15.117000;-0.2329;-0.6835;-2.5152;2.617
15.118000;0.0561;-0.5779;-2.3615;2.432
15.119000;0.3371;-0.4358;-2.1506;2.220
15.123000;0.6804;-0.3867;-2.2856;2.416
15.133000;1.0515;-0.3697;-2.5624;2.794
15.143000;1.4122;-0.2841;-2.6396;3.007
15.154000;1.5454;-0.2812;-2.6579;3.087
15.192000;1.4771;-0.2941;-2.4006;2.834
15.194000;1.3678;-0.2122;-1.9556;2.396
15.195000;1.2885;-0.1589;-1.5312;2.008
15.197000;1.2535;-0.1068;-1.2863;1.799
15.204000;1.0509;-0.0853;-1.2836;1.661
15.214000;0.7649;-0.0674;-1.4814;1.669
15.223000;0.5644;0.0251;-1.7154;1.806
15.233000;0.3677;0.0813;-1.7453;1.785
15.243000;0.1438;0.1580;-1.4287;1.445
15.254000;-0.0557;0.1654;-0.9071;0.924
15.316000;-0.1805;0.1524;-0.4521;0.510
15.318000;-0.2109;0.1295;-0.1869;0.310
15.319000;-0.1727;0.1324;-0.0147;0.218
15.320000;-0.1327;0.1613;0.1077;0.235
15.321000;-0.1495;0.2297;0.2169;0.349
15.321000;-0.2740;0.3168;0.3209;0.528
15.323000;-0.4944;0.4463;0.5080;0.838
15.334000;-0.7903;0.5620;0.8276;1.275
15.343000;-1.0593;0.7305;1.2218;1.774
15.354000;-1.1050;0.9533;1.5739;2.146
15.395000;-0.9281;1.2516;1.9068;2.462
15.397000;-0.5964;1.5725;3.2405;3.651
15.398000;0.0023;1.9429;4.2403;4.664
15.400000;0.0517;1.7329;4.7984;5.102
15.404000;-0.1276;1.1859;4.7668;4.914
15.415000;-0.4884;0.3504;4.3398;4.381
15.423000;-0.6980;-0.4606;3.7445;3.837
15.436000;-0.4615;-0.9097;3.2306;3.388
15.443000;0.2073;-0.9143;2.9702;3.115
15.453000;1.0485;-0.5977;2.8578;3.102
15.500000;1.7808;-0.1015;2.9586;3.455
15.502000;2.0449;0.2227;3.2548;3.850
15.504000;1.9579;0.0577;3.2510;3.795
15.506000;1.6660;-0.5792;2.9214;3.413
15.508000;1.2058;-1.4872;2.3823;3.056
15.515000;0.7675;-2.4145;1.8787;3.154
15.523000;0.4266;-3.1044;1.5354;3.490
15.533000;0.2675;-3.5277;1.2768;3.761
15.543000;0.2073;-3.7621;0.9309;3.881
15.554000;0.2114;-3.8256;0.4789;3.861
15.600000;0.3221;-3.6798;-0.0781;3.695
15.601000;0.4461;-3.3521;-0.6610;3.446
15.603000;0.6149;-2.8817;-1.1549;3.165
15.605000;0.8570;-2.3091;-1.3665;2.817
15.606000;1.0985;-1.7343;-1.2724;2.415
15.615000;1.2731;-1.2527;-1.1172;2.107
15.623000;1.3751;-0.9164;-1.2077;2.047
15.633000;1.3463;-0.7265;-1.5792;2.199
15.643000;1.2332;-0.6343;-2.0732;2.494
15.654000;1.1499;-0.5767;-2.5501;2.856
15.694000;1.1301;-0.4970;-3.0099;3.253
15.696000;1.2219;-0.3503;-3.3952;3.625
15.698000;1.3508;-0.0984;-3.6590;3.902
15.699000;1.4255;0.2813;-3.6756;3.952
15.703000;1.3866;0.7417;-3.4717;3.811
15.714000;1.1306;1.6281;-2.9428;3.548
15.723000;0.8671;2.0240;-2.7241;3.503
15.733000;0.5113;2.3775;-2.5636;3.533
15.743000;0.0782;2.7150;-2.5171;3.703
15.753000;-0.2619;3.0161;-2.7280;4.075
15.811000;-0.3482;3.3524;-2.9463;4.477
15.814000;-0.3210;3.5943;-2.8448;4.595
15.816000;-0.2211;3.7543;-2.4595;4.494
15.817000;-0.1115;3.8388;-1.8978;4.284
15.819000;-0.0959;3.8374;-1.1333;4.002
15.820000;-0.2234;3.7688;-0.2849;3.786
15.824000;-0.4399;3.5878;0.4188;3.639
15.834000;-0.6646;3.2752;0.8712;3.454
15.843000;-0.9103;2.8093;1.1106;3.155
15.854000;-1.0709;2.3503;1.2972;2.890
15.895000;-1.1761;1.8836;1.3594;2.604
15.897000;-1.2437;1.5116;1.1849;2.288
15.898000;-1.3136;1.3185;0.9385;2.084
15.899000;-1.3440;1.3293;0.8925;2.091
15.903000;-1.3671;1.4380;1.0919;2.265
15.915000;-1.3372;1.5131;1.4184;2.468
15.924000;-1.3075;1.4289;1.8757;2.696
15.935000;-1.2569;1.1257;2.3080;2.859
15.943000;-1.1806;0.5218;2.5468;2.855
15.953000;-1.0421;-0.2639;2.4102;2.639
16.018000;-0.7923;-1.0573;2.0327;2.424
16.020000;-0.5187;-1.6705;1.7455;2.471
16.022000;-0.3701;-1.9709;1.7715;2.676
16.024000;-0.3678;-1.9627;2.2282;2.992
16.026000;-0.3127;-1.7592;3.0082;3.499
16.027000;-0.1119;-1.5998;3.6425;3.980
16.028000;0.2348;-1.6092;3.8708;4.199
16.034000;0.5852;-1.7780;3.5836;4.043
16.043000;0.6435;-2.1595;2.0073;3.018
16.053000;0.3242;-2.2132;1.0378;2.466
16.068000;-0.0144;-2.1705;0.1475;2.176
16.073000;-0.2723;-2.0449;-0.7230;2.186
16.112000;-0.4750;-1.8546;-1.4788;2.419
16.114000;-0.6355;-1.6606;-2.0286;2.697
16.116000;-0.7174;-1.4415;-2.2837;2.794
16.117000;-0.6536;-1.2508;-2.2926;2.692
16.123000;-0.4636;-1.0912;-2.2361;2.531
16.133000;-0.2480;-0.9840;-2.1714;2.397
16.143000;-0.0481;-0.8928;-2.1569;2.335
16.156000;0.1268;-0.8040;-2.1145;2.266
16.217000;0.3145;-0.6664;-1.9874;2.120
16.220000;0.5119;-0.5602;-1.8176;1.970
16.221000;0.6958;-0.4581;-1.6835;1.878
16.223000;0.8603;-0.3553;-1.6151;1.864
16.225000;0.9935;-0.2375;-1.6861;1.971
16.226000;1.0162;-0.1320;-1.8085;2.079
16.227000;0.9284;-0.0498;-1.9645;2.173
16.234000;0.7371;0.0115;-2.0966;2.222
16.243000;0.4530;0.0438;-2.1389;2.187
16.253000;0.1403;0.0333;-2.0070;2.012
16.295000;-0.1023;-0.0057;-1.6934;1.697
16.297000;-0.2258;-0.0970;-1.3984;1.420
16.299000;-0.2369;-0.1759;-1.1267;1.165
16.300000;-0.1596;-0.2122;-0.8303;0.872
16.303000;-0.0329;-0.1538;-0.4248;0.453
16.314000;0.1787;-0.0545;0.1354;0.231
16.323000;0.4050;0.0424;0.6536;0.770
16.337000;0.5869;0.0561;1.1649;1.306
16.343000;0.6987;0.0027;1.7742;1.907
16.387000;0.7552;-0.1067;2.4533;2.569
16.389000;0.7746;-0.2591;2.9578;3.069
16.389000;0.7286;-0.5146;3.1692;3.292
16.391000;0.6015;-0.5530;3.0615;3.169
16.393000;0.4370;-0.4972;2.8756;2.951
16.403000;0.1447;-0.3850;2.5774;2.610
16.416000;-0.2559;-0.2732;2.3509;2.380
16.423000;-0.5545;-0.1993;2.3922;2.464
16.433000;-0.6158;-0.1938;2.5738;2.654
16.443000;-0.4066;-0.2090;2.7017;2.740
16.458000;-0.1009;-0.2286;2.6379;2.650
16.465000;0.1960;-0.2011;2.4432;2.459
16.523000;0.5523;-0.1413;2.1475;2.222
16.524000;0.9884;-0.1391;1.8486;2.101
16.525000;1.3046;-0.1783;1.4719;1.975
16.527000;1.2956;-0.2497;1.0088;1.661
16.528000;0.9731;-0.3317;0.5544;1.168
16.528000;0.4600;-0.4999;0.2461;0.723
16.535000;-0.0068;-0.8161;0.2504;0.854
16.543000;-0.2476;-1.3215;0.5145;1.440
16.554000;-0.2992;-1.8261;0.8577;2.040
16.564000;-0.2766;-2.1048;1.1464;2.413
16.598000;-0.2405;-2.1161;1.3564;2.525
16.600000;-0.1430;-1.9518;1.4127;2.414
16.601000;-0.0234;-1.5574;1.2662;2.007
16.604000;0.0917;-1.0241;0.8175;1.314
16.614000;0.1140;-0.5064;0.0934;0.527
16.624000;0.0402;-0.1632;-0.6833;0.704
16.637000;-0.1127;-0.0030;-1.4470;1.451
16.643000;-0.2163;0.0660;-2.1828;2.194
16.690000;-0.3447;0.0688;-2.6801;2.703
16.692000;-0.5520;0.0243;-2.8055;2.859
16.693000;-0.6926;-0.0555;-2.7680;2.854
16.694000;-0.8282;-0.1075;-2.6140;2.744
16.696000;-0.8802;-0.1143;-2.5490;2.699
16.703000;-0.8440;-0.0827;-3.0696;3.185
16.713000;-0.4814;0.2916;-3.3890;3.435
16.723000;-0.1611;0.6774;-3.5670;3.634
16.737000;0.1309;1.0688;-3.6458;3.801
16.743000;0.3918;1.4025;-3.7308;4.005
16.782000;0.6795;1.6913;-3.9484;4.349
16.784000;0.8611;1.9944;-4.1291;4.666
16.786000;1.0617;2.3352;-3.9307;4.694
16.787000;1.2122;2.6777;-3.1321;4.295
16.793000;1.2353;2.9267;-1.9063;3.705
16.804000;1.0769;2.9636;-0.5526;3.201
16.813000;0.6747;2.7097;0.6005;2.856
16.823000;0.0720;2.2488;1.3479;2.623
16.836000;-0.5786;1.6649;1.6971;2.447
16.843000;-1.1194;1.0485;1.8767;2.424
16.896000;-1.5565;0.5708;2.0451;2.633
16.898000;-1.9428;0.2479;2.1797;2.930
16.900000;-2.2858;0.1315;2.3225;3.261
16.901000;-2.4901;0.1736;2.5195;3.547
16.902000;-2.4803;0.4046;2.7020;3.690
16.904000;-2.2240;0.8209;2.8923;3.740
16.913000;-1.8757;1.2535;3.2147;3.927
16.924000;-1.5616;1.5091;3.5731;4.181
16.937000;-1.2655;1.4358;3.6414;4.114
16.943000;-0.9787;1.1241;3.3835;3.697
16.982000;-0.7939;0.8602;3.0916;3.306
16.985000;-0.7375;0.6768;2.7792;2.954
16.986000;-0.5654;0.6879;2.7447;2.886
16.988000;-0.1169;0.9740;3.4632;3.600
16.993000;0.3595;1.2775;4.5839;4.772
17.004000;0.7201;1.4015;5.2085;5.442
17.013000;0.9511;1.2109;5.1371;5.363
17.023000;0.9815;0.7987;4.5294;4.703
17.036000;0.8234;0.3102;3.5466;3.654
17.043000;0.3319;-0.5455;0.8173;1.037
17.096000;0.0627;-0.8330;-0.4777;0.962
17.099000;-0.1836;-0.9167;-1.5155;1.781
17.101000;-0.3400;-0.8480;-2.1534;2.339
17.102000;-0.3624;-0.7045;-2.4338;2.559
17.105000;-0.4153;-0.5749;-2.5533;2.650
17.106000;-0.5454;-0.5775;-2.5442;2.665
17.113000;-0.7163;-0.7440;-2.3554;2.572
17.124000;-0.8280;-1.0245;-2.0449;2.432
17.141000;-0.7039;-1.2768;-1.9191;2.410
17.145000;-0.3741;-1.3886;-1.9145;2.395
17.213000;0.0741;-1.3675;-1.9891;2.415
17.215000;0.4993;-1.2425;-2.1460;2.530
17.217000;0.8350;-1.0536;-2.4349;2.781
17.218000;1.0522;-0.8279;-2.7832;3.088
17.219000;1.0919;-0.6590;-3.0952;3.348
17.220000;1.0000;-0.5850;-3.2901;3.488
17.221000;0.9494;-0.5378;-3.3408;3.515
17.223000;0.9294;-0.5477;-3.0861;3.269
17.234000;0.9743;-0.6707;-2.6860;2.935
17.243000;1.0773;-0.8996;-2.4316;2.808
17.254000;1.1399;-1.1673;-2.3631;2.872
17.263000;1.0645;-1.3004;-2.1352;2.717
17.313000;0.7434;-1.4094;-1.6476;2.292
17.316000;0.3162;-1.5019;-1.0692;1.871
17.316000;-0.1700;-1.5822;-0.6874;1.733
17.317000;-0.5674;-1.6534;-0.4920;1.816
17.318000;-0.8228;-1.7038;-0.2694;1.911
17.323000;-0.8766;-1.6968;0.1095;1.913
17.334000;-0.6897;-1.6551;0.6107;1.894
17.343000;-0.4393;-1.5898;1.0853;1.974
17.354000;-0.1661;-1.4648;1.5094;2.110
17.365000;0.0299;-1.2077;1.9465;2.291
17.377000;0.2171;-0.5090;3.3683;3.413
17.420000;0.3592;-0.1255;4.2640;4.281
17.422000;0.6597;0.2122;4.9343;4.983
17.424000;0.9357;0.4441;5.3528;5.452
17.425000;1.1214;0.5686;5.7475;5.883
17.427000;1.0194;0.5467;6.0163;6.127
17.434000;0.5840;0.2477;5.9736;6.007
17.443000;-0.0086;-0.2030;5.4896;5.493
17.453000;-0.4698;-0.6528;4.6691;4.738
17.463000;-0.6881;-1.0286;3.6195;3.825
17.473000;-0.6890;-1.2947;2.5016;2.900
17.523000;-0.5164;-1.3876;1.4732;2.089
17.525000;-0.2594;-1.3887;0.5791;1.527
17.525000;0.1190;-1.3134;-0.1885;1.332
17.526000;0.6789;-1.0484;-0.7018;1.433
17.527000;1.2334;-0.6548;-1.1113;1.785
17.534000;1.6021;-0.2434;-1.6171;2.289
17.543000;1.7488;0.1626;-2.1947;2.811
17.554000;1.5204;0.4420;-2.7896;3.208
17.563000;1.0137;0.4617;-3.1883;3.377
17.573000;0.3643;0.2106;-3.1097;3.138
17.614000;-0.3124;-0.2826;-2.6562;2.689
17.616000;-0.8138;-0.8414;-2.2543;2.540
17.618000;-1.1751;-1.2172;-1.7377;2.425
17.619000;-1.3866;-1.3803;-1.2014;2.296
17.623000;-1.4104;-1.3237;-0.7839;2.087
17.634000;-1.3416;-1.1692;-0.5172;1.853
17.646000;-1.1039;-0.9588;-0.4939;1.543
17.654000;-0.7098;-0.6286;-0.7420;1.204
17.663000;-0.2889;-0.2085;-1.2500;1.300
17.673000;0.0257;0.2021;-1.8439;1.855
17.724000;0.2582;0.6356;-2.3607;2.458
17.725000;0.3669;0.9605;-3.0934;3.260
17.727000;0.3590;1.2109;-2.9392;3.199
17.728000;0.3483;1.1110;-2.5207;2.777
17.729000;0.4328;0.8770;-2.1132;2.329
17.736000;0.6756;0.6651;-1.8007;2.035
17.744000;0.9515;0.5494;-1.4682;1.834
17.753000;1.1289;0.5462;-1.1641;1.711
17.764000;1.0768;0.7065;-0.8412;1.538
17.773000;0.6449;0.9851;-0.3370;1.225
17.818000;-0.0888;1.2214;0.3136;1.264
17.820000;-0.8775;1.2153;0.6175;1.621
17.821000;-1.4242;0.9308;0.5557;1.790
17.822000;-1.7326;0.5888;0.1978;1.841
17.823000;-1.9389;0.3051;-0.4087;2.005
17.835000;-2.0833;0.2411;-0.8829;2.275
17.843000;-2.3348;0.2673;-0.9599;2.539
17.853000;-2.7352;0.3675;-0.7316;2.855
17.863000;-3.0197;0.6749;0.0259;3.094
17.874000;-3.0064;1.0896;1.0411;3.363
17.909000;-2.6509;1.4325;2.1631;3.709
17.912000;-2.0301;1.4121;3.2227;4.062
17.913000;-1.5353;1.0631;3.8116;4.244
17.914000;-1.3937;0.5345;3.7842;4.068
17.923000;-1.5141;0.0684;3.3887;3.712
17.935000;-1.6837;-0.1636;3.2421;3.657
17.943000;-1.6456;-0.2079;4.0774;4.402
17.953000;-1.2498;-0.1979;5.5663;5.708
17.963000;-0.7093;-0.2819;6.6690;6.713
17.974000;-0.2177;-0.4197;6.9869;7.003
18.026000;0.2756;-0.4830;6.6943;6.717
18.028000;0.8662;-0.3988;5.9434;6.019
18.029000;1.4174;-0.2208;4.8104;5.020
18.030000;1.9028;0.1342;3.5686;4.046
18.031000;2.2872;0.5955;2.3044;3.301
18.035000;2.3153;1.1566;0.3426;2.611
18.043000;1.9365;1.0689;-0.2550;2.227
18.055000;1.3903;0.7119;-0.6907;1.708
18.063000;0.8194;0.2120;-1.0008;1.311
18.101000;0.3135;-0.2939;-1.1745;1.251
18.102000;0.0171;-0.7166;-1.3379;1.518
18.105000;-0.1945;-1.0357;-1.8572;2.135
18.106000;-0.3972;-1.3343;-2.2835;2.674
18.113000;-0.4846;-1.4251;-2.5868;2.993
18.123000;-0.3060;-1.3444;-2.9996;3.301
18.135000;-0.0851;-1.2241;-3.3911;3.606
18.143000;0.0224;-1.0920;-3.6230;3.784
18.153000;0.0478;-0.9238;-3.7666;3.879
18.163000;-0.0133;-0.7953;-3.8803;3.961
18.174000;-0.1271;-0.7816;-3.9274;4.006
18.240000;-0.1388;-0.8610;-3.7649;3.865
18.242000;-0.0877;-0.9935;-3.4841;3.624
18.244000;-0.0196;-1.1019;-3.2860;3.466
18.245000;0.0035;-1.1587;-3.2006;3.404
18.246000;0.0320;-1.0731;-3.2609;3.433
18.248000;0.0727;-0.8673;-3.3123;3.425
18.249000;0.1571;-0.5968;-3.0241;3.086
18.254000;0.2926;-0.3582;-2.5743;2.615
18.263000;0.4305;-0.2661;-1.9886;2.052
18.273000;0.5388;-0.2954;-1.3031;1.441
18.319000;0.4994;-0.3909;-0.5850;0.863
18.321000;0.3794;-0.5362;0.2913;0.719
18.322000;0.1888;-0.7804;1.1058;1.367
18.324000;-0.0520;-1.0319;1.6871;1.978
18.325000;-0.2240;-1.2270;2.0954;2.439
18.336000;-0.4244;-1.3393;2.5614;2.921
18.343000;-0.6348;-1.3326;3.0940;3.428
18.354000;-0.8889;-1.3152;4.6616;4.925
18.363000;-0.9415;-1.2482;5.6110;5.825
18.374000;-0.3396;-1.2275;6.2844;6.412
18.383000;0.2823;-1.1629;6.3216;6.434
18.428000;0.8339;-0.9231;5.8453;5.976
18.430000;1.1044;-0.5042;5.1326;5.274
18.432000;1.3164;0.2385;4.3166;4.519
18.433000;1.4275;1.0861;3.6576;4.074
18.435000;1.4350;1.6750;3.1224;3.823
18.443000;1.2967;1.7713;2.4774;3.310
18.457000;1.0453;1.4680;1.7239;2.494
18.463000;0.5061;0.8460;1.0427;1.435
18.505000;-0.1972;0.0424;0.6546;0.685
18.506000;-0.7713;-0.7190;0.6011;1.214
18.507000;-1.0401;-1.3271;0.7331;1.839
18.508000;-1.0202;-1.7763;0.6954;2.163
18.513000;-0.8491;-1.9791;0.6344;2.245
18.523000;-0.5819;-1.9216;0.4718;2.062
18.533000;-0.1489;-1.6024;0.1540;1.617
18.543000;0.4228;-1.0749;-0.2379;1.179
18.557000;0.9439;-0.3851;-0.5276;1.148
18.563000;1.3152;0.2978;-0.8521;1.595
18.620000;1.5092;0.8117;-1.3447;2.178
18.622000;1.5202;1.1481;-1.9267;2.709
18.624000;1.4664;1.3232;-2.4598;3.155
18.625000;1.3792;1.3626;-2.8665;3.461
18.626000;1.2705;1.2304;-3.1931;3.650
18.627000;1.1398;1.0486;-3.5264;3.852
18.633000;1.0036;0.8087;-3.8488;4.059
18.644000;0.9319;0.5910;-4.0791;4.226
18.659000;0.9198;0.4351;-4.1288;4.252
18.663000;0.9696;0.3537;-4.0184;4.149
18.707000;1.0188;0.3550;-3.8225;3.972
18.709000;1.0961;0.3979;-3.5286;3.716
18.710000;1.1537;0.4729;-3.1926;3.427
18.711000;1.1795;0.6180;-2.6593;2.974
18.713000;1.0673;0.5195;-2.6350;2.890
18.723000;0.9334;0.3980;-2.4520;2.654
18.734000;0.9308;0.3102;-1.9470;2.180
18.743000;0.9290;0.1855;-1.3104;1.617
18.760000;0.6294;0.0907;-0.7235;0.963
18.764000;-0.1329;0.0705;-0.5932;0.612
18.835000;-1.0723;0.0472;-0.8617;1.376
18.837000;-2.1045;0.0391;-1.1786;2.412
18.838000;-2.9705;0.1309;-1.0987;3.170
18.840000;-3.5763;0.2458;-0.7346;3.659
18.841000;-3.9335;0.2598;-0.2460;3.950
18.843000;-3.9679;0.3284;0.3064;3.993
18.845000;-3.6689;0.5639;0.8266;3.803
18.846000;-3.1443;0.9257;1.5803;3.639
18.854000;-2.3707;1.3648;3.2274;4.231
18.863000;-1.4808;1.7488;5.5241;5.981
18.874000;-0.5936;1.9013;7.5307;7.790
18.884000;0.2921;1.7246;8.3984;8.579
18.922000;0.9063;1.2235;8.0673;8.210
18.925000;1.0285;0.6019;6.9602;7.062
18.927000;0.6052;-0.0399;5.4265;5.460
18.928000;-0.0829;-0.5558;4.0091;4.048
18.934000;-0.8191;-0.9479;3.0255;3.275
18.944000;-1.3959;-1.2208;2.5482;3.152
18.958000;-1.4817;-1.3223;2.5670;3.246
18.963000;-1.0748;-1.2491;2.8226;3.268
19.015000;-0.4376;-1.0306;2.9638;3.168
19.017000;0.1236;-0.7906;2.5887;2.710
19.018000;0.4622;-0.5813;1.6010;1.765
19.019000;0.5638;-0.4173;0.2309;0.738
19.020000;0.3824;-0.3839;-1.2057;1.322
19.023000;0.0283;-0.4648;-2.3302;2.376
19.033000;-0.6762;-0.8020;-3.1620;3.331
19.044000;-0.8886;-0.9956;-3.1568;3.427
19.058000;-0.9240;-1.1263;-3.0192;3.352
19.064000;-0.7358;-1.1476;-2.7409;3.061
19.109000;-0.4352;-1.0232;-2.3359;2.587
19.111000;-0.1012;-0.8113;-1.9732;2.136
19.113000;0.3106;-0.5232;-1.8729;1.969
19.114000;0.7885;-0.0876;-1.8638;2.026
19.116000;1.2511;0.4413;-1.8774;2.299
19.124000;1.5843;0.8935;-1.9280;2.651
19.133000;1.7938;1.1914;-2.0042;2.942
19.143000;1.8541;1.2592;-2.0203;3.017
19.159000;1.8407;1.1007;-1.9995;2.932
19.164000;1.7592;0.8628;-1.9870;2.791
19.229000;1.6195;0.6407;-2.0499;2.690
19.231000;1.4062;0.4316;-2.2314;2.673
19.233000;1.1414;0.3627;-2.2054;2.510
19.242000;0.8372;0.3752;-1.8730;2.086
19.243000;0.4648;0.3005;-1.2679;1.383
19.244000;0.0569;0.0286;-0.5814;0.585
19.245000;-0.1762;-0.3224;-0.0438;0.370
19.245000;-0.3056;-0.7082;0.3097;0.831
19.259000;-0.2576;-1.0635;0.4123;1.169
19.264000;0.1462;-1.4029;0.6309;1.545
19.309000;0.8009;-1.7328;1.2823;2.300
19.311000;1.3944;-2.0190;2.4917;3.497
19.314000;1.7840;-2.3499;3.6768;4.714
19.316000;1.7589;-2.5059;4.2092;5.205
19.319000;1.4559;-2.2585;3.8570;4.701
19.324000;1.0954;-1.7546;3.1219;3.745
19.333000;0.7797;-1.2668;2.3076;2.746
19.344000;0.1926;-0.9787;1.5133;1.812
19.360000;0.2008;-0.9084;1.4938;1.760
19.364000;-0.0837;-1.1054;3.0517;3.247
19.433000;-0.0838;-1.1152;4.0631;4.214
19.437000;0.0604;-0.9529;4.6843;4.781
19.440000;0.2812;-0.7692;4.5612;4.634
19.442000;0.4801;-0.6535;3.8024;3.888
19.444000;0.5922;-0.7097;2.7090;2.862
19.446000;0.6652;-0.8360;1.7774;2.074
19.447000;0.6547;-1.0015;1.0684;1.604
19.448000;0.4407;-1.2183;0.2926;1.328
19.455000;-0.0249;-1.3502;-0.4062;1.410
19.464000;-0.4831;-1.3543;-0.8054;1.648
19.478000;-0.8721;-1.3239;-1.1125;1.937
19.483000;-1.1046;-1.2802;-1.4029;2.197
19.542000;-1.1737;-1.1795;-1.5976;2.307
19.545000;-1.1690;-1.0417;-1.7698;2.363
19.547000;-1.0972;-0.8873;-1.8947;2.362
19.548000;-1.0017;-0.6962;-1.9763;2.322
19.550000;-0.8820;-0.4896;-2.1300;2.357
19.551000;-0.7092;-0.2691;-2.4584;2.573
19.554000;-0.5216;-0.0269;-2.8096;2.858
19.563000;-0.3070;0.2051;-3.0966;3.119
19.574000;-0.0710;0.4386;-3.2528;3.283
19.583000;0.1709;0.7081;-3.2593;3.340
19.624000;0.3896;0.9836;-3.1245;3.299
19.626000;0.5793;1.2532;-2.8938;3.206
19.627000;0.7180;1.5175;-2.6063;3.100
19.628000;0.7327;1.7615;-2.2890;2.980
19.633000;0.6793;1.9000;-1.9754;2.824
19.643000;0.5255;1.9089;-1.6773;2.595
19.658000;0.2811;1.7871;-1.4488;2.318
19.663000;0.0107;1.5727;-1.1332;1.938
19.708000;-0.2065;1.3374;-0.5468;1.459
19.710000;-0.2377;1.1253;0.0709;1.152
19.710000;-0.2512;0.9089;0.7070;1.179
19.711000;-0.3540;0.9644;0.7555;1.275
19.713000;-0.5032;1.2198;1.0694;1.698
19.724000;-0.5338;1.5751;1.6054;2.312
19.733000;-0.3643;1.8179;1.9407;2.684
19.743000;-0.2032;1.8906;1.9052;2.692
19.758000;-0.1449;1.7917;1.7483;2.508
19.764000;-0.3833;1.5004;1.5296;2.177
19.830000;-0.8260;1.1167;1.4339;1.996
19.832000;-1.1252;0.7501;1.5836;2.082
19.833000;-1.1269;0.4902;1.9099;2.271
19.835000;-0.9290;0.5178;2.4017;2.627
19.838000;-0.6990;0.7474;2.9443;3.117
19.838000;-0.3976;1.0006;3.2065;3.382
19.840000;0.0081;1.1374;2.8954;3.111
19.844000;0.3082;1.1169;2.0697;2.372
19.861000;0.3536;0.9694;1.0302;1.458
19.863000;0.1710;0.8571;0.2391;0.906
19.915000;-0.1251;0.7503;-0.0419;0.762
19.917000;-0.4395;0.5634;0.2660;0.762
19.918000;-0.6618;0.3045;1.2195;1.421
19.919000;-0.6416;-0.0043;2.4356;2.519
19.922000;-0.6437;-0.4471;3.4526;3.540
19.924000;-0.6997;-0.9455;3.9537;4.125
19.933000;-0.7697;-1.3889;4.0380;4.339
19.943000;-0.7860;-1.7070;3.8296;4.266
19.959000;-0.7267;-1.8030;3.2682;3.803
19.964000;-0.6363;-1.6139;2.4436;2.997
20.019000;-0.5517;-1.2059;1.5241;2.020
20.021000;-0.5220;-0.8541;0.7706;1.263
20.022000;-0.6266;-0.6602;0.2230;0.937
20.024000;-0.7297;-0.6325;-0.2229;0.991
20.025000;-0.8500;-0.7593;-0.6522;1.313
20.026000;-1.1243;-1.2330;-1.3642;2.155
20.033000;-1.1500;-1.4007;-1.5439;2.381
20.044000;-1.0337;-1.4657;-1.6463;2.435
20.059000;-0.7787;-1.4392;-1.7911;2.426
20.065000;-0.5136;-1.3356;-2.0902;2.533
20.110000;-0.2929;-1.0582;-2.5060;2.736
20.112000;-0.0059;-0.5677;-3.0596;3.112
20.114000;0.3558;-0.0001;-3.6022;3.620
20.116000;0.7418;0.4677;-4.0054;4.100
20.117000;1.1032;0.7356;-4.2217;4.425
20.123000;1.3034;0.9049;-4.2459;4.533
20.133000;1.2405;0.9991;-3.9549;4.264
20.143000;0.9169;1.0606;-3.1653;3.462
20.158000;0.5444;1.0989;-1.9938;2.341
20.163000;0.2935;0.9461;-1.1229;1.497
20.220000;0.0824;0.6202;-0.6573;0.907
20.221000;-0.1419;0.2258;-0.3504;0.440
20.222000;-0.3631;-0.2928;-0.1646;0.495
20.223000;-0.5710;-0.9028;-0.3416;1.121
20.224000;-0.7021;-1.4129;-0.7735;1.757
20.225000;-0.6261;-1.5900;-1.0543;2.008
20.233000;-0.4256;-1.4692;-0.8503;1.750
20.243000;-0.1718;-1.2461;-0.3760;1.313
20.260000;0.0709;-1.0232;0.0455;1.027
20.264000;0.2765;-0.8604;0.4977;1.032
20.344000;0.4393;-0.8472;1.0516;1.420
20.346000;0.5791;-0.9438;1.5186;1.879
20.347000;0.7285;-1.0765;1.7419;2.173
20.348000;1.0112;-1.1992;1.7444;2.346
20.348000;1.2412;-1.2039;1.6733;2.406
20.349000;1.2280;-1.1017;1.6989;2.368
20.349000;1.1530;-0.9315;1.9191;2.425
20.350000;1.1231;-0.7554;2.4975;2.841
20.356000;1.1357;-0.6732;3.2278;3.487
20.364000;1.4778;-1.0905;3.4910;3.945
20.379000;1.5141;-1.2493;3.4317;3.953
20.383000;1.4839;-1.2102;3.3115;3.825
20.446000;1.3141;-1.0015;3.2185;3.618
20.448000;1.0400;-0.8153;3.3764;3.626
20.449000;0.6855;-0.7582;3.6178;3.759
20.450000;0.2965;-0.8590;3.8183;3.925
20.451000;-0.0922;-1.1239;3.9168;4.076
20.453000;-0.3698;-1.5405;3.7706;4.090
20.455000;-0.3328;-1.8466;3.2378;3.742
20.463000;-0.0915;-1.9868;2.4737;3.174
20.476000;0.1964;-1.9439;1.7806;2.643
20.483000;0.7296;-1.6411;1.2603;2.194
20.528000;1.7450;-1.0990;0.8308;2.223
20.530000;2.7040;-0.3754;0.3807;2.756
20.531000;3.3718;0.4410;-0.3646;3.420
20.533000;3.4483;1.2600;-1.3105;3.898
20.535000;2.8094;1.8186;-2.4033;4.120
20.543000;1.8983;1.9688;-3.5927;4.515
20.554000;0.8890;1.7782;-4.5964;5.008
20.563000;-0.3302;1.3134;-5.2091;5.382
20.621000;-1.5084;0.6648;-5.4484;5.692
20.624000;-2.4101;-0.0005;-5.4575;5.966
20.626000;-2.8924;-0.4835;-5.1915;5.962
20.628000;-2.9936;-0.6958;-4.6885;5.606
20.630000;-2.8237;-0.7215;-4.1019;5.032
20.632000;-2.4686;-0.5198;-3.5595;4.363
20.633000;-2.0450;-0.1309;-3.0755;3.696
20.643000;-1.6487;0.4029;-2.8674;3.332
20.653000;-1.3175;0.9934;-3.0248;3.446
20.665000;-1.0881;1.4726;-3.3655;3.831
20.726000;-0.9583;1.8671;-3.6288;4.192
20.728000;-0.9353;2.0813;-3.6110;4.272
20.729000;-1.6087;1.7158;-2.8494;3.695
20.730000;-2.0681;1.1634;-2.4371;3.401
20.731000;-2.4224;0.6616;-1.8711;3.132
20.732000;-2.6290;0.2980;-1.2074;2.908
20.735000;-2.7048;0.1551;-0.2555;2.721
20.743000;-2.7096;0.2109;0.8482;2.847
20.760000;-2.7401;0.2840;1.6675;3.220
20.764000;-2.6881;0.3240;2.0240;3.380
20.817000;-2.4955;0.4475;2.1529;3.326
20.820000;-2.1703;0.7342;2.4032;3.320
20.822000;-1.8173;0.9936;2.7603;3.451
20.824000;-1.4926;1.1386;2.9513;3.498
20.826000;-1.1638;1.2567;3.2363;3.662
20.828000;-0.8201;1.2608;3.7426;4.033
20.833000;-0.6395;1.0402;4.5292;4.691
20.844000;-0.3942;0.7307;5.2381;5.303
20.853000;0.0618;0.4486;5.3644;5.383
20.864000;0.7104;0.4331;5.0359;5.104
20.928000;1.5247;0.8128;4.8931;5.189
20.930000;2.2065;1.3990;5.1038;5.734
20.932000;2.5802;2.1012;5.2791;6.240
20.934000;2.4371;2.5950;5.3266;6.407
20.935000;1.9408;2.5469;5.1786;6.089
20.937000;1.3432;1.8720;4.8383;5.359
20.939000;0.8720;0.8820;4.2033;4.383
20.943000;0.4699;-0.0947;3.3907;3.424
20.961000;0.2357;-0.8094;2.4463;2.588
20.965000;-0.0202;-1.2236;1.3923;1.854
21.036000;-0.3583;-1.3781;0.2563;1.447
21.037000;-0.7854;-1.2621;-0.6408;1.619
21.038000;-1.1857;-1.0722;-1.2566;2.033
21.039000;-1.5209;-0.9435;-1.6839;2.457
21.040000;-1.6822;-0.9500;-1.9084;2.716
21.041000;-1.4241;-1.0751;-2.1138;2.766
21.043000;-0.9895;-1.1409;-2.2185;2.684
21.045000;-0.4891;-1.1075;-2.3187;2.616
21.053000;-0.0892;-0.9955;-2.5458;2.735
21.063000;0.2580;-0.8390;-2.8984;3.028
21.078000;0.6009;-0.6402;-3.0917;3.214
21.083000;0.9576;-0.4021;-3.1743;3.340
21.155000;1.1896;-0.2025;-3.0826;3.310
21.157000;1.3004;-0.0789;-2.8170;3.104
21.158000;1.3512;-0.1328;-2.5699;2.907
21.158000;1.3955;-0.3274;-2.2644;2.680
21.159000;1.4055;-0.6377;-1.9274;2.469
21.160000;1.4099;-0.9389;-1.6974;2.398
21.160000;1.3967;-1.0617;-1.4906;2.302
21.163000;1.4235;-0.9798;-1.1091;2.053
21.174000;1.4320;-0.8232;-0.6087;1.760
21.183000;1.4465;-0.7338;0.0206;1.622
21.195000;1.4676;-0.7914;0.7285;1.820
21.203000;1.4204;-0.8892;1.5856;2.307
21.248000;1.2740;-1.0403;2.3403;2.860
21.250000;1.1288;-1.2560;2.7766;3.250
21.251000;1.0887;-1.5098;2.7947;3.358
21.252000;1.0443;-1.7515;2.4385;3.179
21.254000;0.9385;-1.8802;1.8672;2.811
21.263000;0.7809;-1.7915;1.4924;2.459
21.277000;0.5872;-1.5878;1.4185;2.209
21.283000;0.2780;-1.3360;1.5724;2.082
21.327000;-0.1821;-1.0524;1.9657;2.237
21.329000;-0.5578;-0.8605;2.5449;2.744
21.331000;-0.6437;-0.8419;3.0280;3.208
21.331000;-0.3331;-1.0107;3.2507;3.420
21.334000;0.2512;-1.1084;3.2901;3.481
21.343000;0.7873;-0.9261;3.0626;3.295
21.353000;1.2036;-0.1564;1.9064;2.260
21.364000;0.9333;0.1124;1.3400;1.637
21.418000;0.5463;0.0965;0.7659;0.946
21.420000;0.1796;-0.2284;0.2599;0.390
21.421000;-0.1171;-0.7683;-0.1876;0.800
21.423000;-0.2739;-1.2937;-0.4998;1.414
21.425000;-0.2087;-1.5673;-0.6356;1.704
21.427000;0.0967;-1.4915;-0.5561;1.595
21.433000;0.2986;-1.3861;-0.3784;1.468
21.444000;0.3352;-1.2959;-0.4516;1.413
21.453000;0.3584;-1.1357;-0.7268;1.395
21.464000;0.3106;-0.8416;-0.9936;1.339
21.531000;0.1789;-0.5511;-1.0468;1.196
21.535000;0.0167;-0.2884;-0.9350;0.979
21.536000;-0.1602;-0.1295;-0.9341;0.957
21.537000;-0.3866;-0.1083;-1.0957;1.167
21.539000;-0.6296;-0.1161;-1.2830;1.434
21.541000;-0.9557;-0.2143;-1.4486;1.749
21.542000;-1.1878;-0.3425;-1.6149;2.034
21.545000;-1.2308;-0.4222;-1.8120;2.231
21.554000;-1.1133;-0.3938;-2.0621;2.376
21.563000;-0.8622;-0.1665;-2.2953;2.458
21.623000;-0.6035;0.1839;-2.4407;2.521
21.625000;-0.3268;0.5875;-2.5335;2.621
21.627000;-0.0798;0.9676;-2.5468;2.726
21.628000;0.0557;1.3419;-2.4970;2.835
21.630000;0.0785;1.7054;-2.4797;3.011
21.631000;-0.0182;1.9945;-2.5797;3.261
21.633000;-0.1771;2.2004;-2.6916;3.481
21.644000;-0.3128;2.3197;-2.4192;3.366
21.653000;-0.3702;2.3645;-1.8895;3.049
21.663000;-0.3177;2.3498;-1.1612;2.640
21.729000;-0.2890;2.3253;-0.4461;2.385
21.731000;-0.4563;2.4694;0.8929;2.665
21.732000;-0.9241;2.5292;1.2631;2.974
21.734000;-0.8942;2.4035;1.6151;3.031
21.735000;-0.8080;2.2957;1.8167;3.037
21.736000;-0.6978;2.2179;1.6072;2.826
21.737000;-0.5240;2.2208;1.3992;2.677
21.744000;-0.3477;2.2127;1.4170;2.650
21.753000;-0.2890;2.1901;1.5820;2.717
21.764000;-0.3196;2.1599;1.9472;2.926
21.819000;-0.4361;1.9272;2.2649;3.006
21.821000;-0.6969;1.4220;2.5113;2.969
21.823000;-1.0651;0.7536;2.7225;3.019
21.825000;-1.5482;0.0844;2.9063;3.294
21.827000;-1.9775;-0.4900;2.9468;3.582
21.828000;-2.2449;-0.9339;2.7072;3.639
21.833000;-2.3188;-1.2758;2.1835;3.431
21.844000;-2.2183;-1.5633;1.3736;3.042
21.853000;-1.9085;-1.7772;0.5552;2.666
21.863000;-1.4373;-1.8694;0.0019;2.358
21.929000;-0.9377;-1.8199;-0.3136;2.071
21.931000;-0.5775;-1.6039;-0.7041;1.844
21.932000;-0.3919;-1.3707;-1.3420;1.958
21.933000;-0.3893;-1.1645;-1.9811;2.331
21.934000;-0.5255;-1.0012;-2.3306;2.590
21.936000;-0.6868;-0.9702;-2.4284;2.704
21.937000;-0.7837;-0.9871;-2.3381;2.656
21.943000;-0.7471;-1.0531;-2.0087;2.388
21.953000;-0.6259;-1.0796;-1.5418;1.984
21.963000;-0.4362;-1.0297;-1.0932;1.564
22.024000;-0.2407;-0.8990;-0.6523;1.136
22.026000;0.0074;-0.7824;-0.1642;0.800
22.028000;0.2216;-0.7171;0.1243;0.761
22.029000;0.4508;-0.6559;0.1825;0.817
22.030000;0.8954;-0.3570;0.1487;0.975
22.031000;1.1019;-0.2901;0.0235;1.140
22.033000;1.3223;-0.2870;-0.2654;1.379
22.044000;1.4390;-0.2703;-0.5563;1.566
22.053000;1.3712;-0.2988;-0.8321;1.631
22.067000;1.1670;-0.3898;-1.0766;1.635
22.133000;0.9218;-0.4819;-1.3729;1.722
22.135000;0.7788;-0.5736;-1.6704;1.930
22.136000;0.7195;-0.6824;-1.7327;1.996
22.136000;0.7663;-0.8594;-1.4972;1.889
22.138000;0.9025;-1.0734;-0.9446;1.691
22.139000;1.0584;-1.2972;-0.1893;1.685
22.141000;1.2434;-1.4613;0.4452;1.970
22.145000;1.3916;-1.5780;1.0734;2.362
22.153000;1.3814;-1.7319;1.7599;2.829
22.163000;1.2272;-1.9113;2.2458;3.194
22.183000;0.9718;-2.0852;2.4319;3.348
22.185000;0.7098;-2.1872;2.2956;3.249
22.239000;0.4551;-2.1315;1.8837;2.881
22.241000;0.1757;-1.9893;1.4161;2.448
22.242000;-0.0788;-1.7877;1.0823;2.091
22.245000;-0.0223;-1.5377;1.0636;1.870
22.245000;0.5626;-1.2467;1.2728;1.868
22.246000;1.4355;-0.8869;1.5089;2.264
22.253000;2.1995;-0.2975;1.7335;2.816
22.263000;2.7670;0.4063;1.9121;3.388
22.281000;3.1897;1.0694;2.0946;3.963
22.284000;3.4461;1.5046;1.9703;4.245
22.349000;3.4300;1.5840;1.2845;3.990
22.351000;3.0656;1.2987;0.2761;3.341
22.354000;2.4407;0.7286;-0.4818;2.592
22.356000;1.7084;0.0341;-0.7459;1.864
22.358000;1.0817;-0.6659;-0.7264;1.463
22.359000;0.6707;-1.2259;-0.6990;1.563
22.360000;0.0054;-1.7924;-0.6806;1.917
22.363000;-0.2430;-1.7989;-0.7067;1.948
22.382000;-0.3417;-1.6311;-0.6850;1.802
22.384000;-0.2360;-1.3458;-0.8009;1.584
22.460000;0.0486;-0.9431;-1.1628;1.498
22.461000;0.2846;-0.5186;-1.6765;1.778
22.462000;0.2523;-0.1363;-2.1697;2.189
22.464000;-0.0097;0.1267;-2.4448;2.448
22.465000;-0.4770;0.2642;-2.2599;2.325
22.466000;-0.9949;0.2318;-1.8096;2.078
22.467000;-1.3517;0.1256;-1.3035;1.882
22.468000;-1.4532;-0.0074;-0.7047;1.615
22.473000;-1.3352;-0.0175;-0.1623;1.345
22.484000;-1.0239;0.1494;0.1344;1.043
22.498000;-0.6336;0.5043;-0.0610;0.812
22.503000;-0.2901;0.9573;-0.5870;1.160
22.551000;-0.1016;1.4279;-0.9769;1.733
22.553000;0.0689;1.9339;-1.2064;2.280
22.554000;0.2170;2.5414;-1.2746;2.851
22.556000;0.3105;3.1035;-1.0138;3.280
22.558000;0.2507;3.5206;-0.5521;3.572
22.564000;0.0535;3.7536;0.1861;3.759
22.575000;-0.1245;3.5899;0.9434;3.714
22.583000;-0.2832;3.1947;1.5893;3.579
22.597000;-0.4919;2.7805;2.3903;3.700
22.603000;-0.5209;2.3420;3.1622;3.969
22.655000;-0.4867;1.9062;3.7799;4.261
22.657000;-0.4875;1.5607;4.3282;4.627
22.659000;-0.5157;1.3290;4.8995;5.103
22.660000;-0.4653;1.1644;5.3404;5.486
22.662000;-0.3238;1.1417;5.5840;5.709
22.663000;-0.1808;1.1910;5.4715;5.603
22.675000;-0.0908;1.3052;4.9820;5.151
22.683000;-0.4373;1.4481;2.6171;3.023
22.701000;-0.7980;1.1922;1.1971;1.869
22.704000;-1.2222;0.8466;0.0847;1.489
22.782000;-1.8150;0.5979;-0.3961;1.952
22.785000;-2.0315;0.3458;-0.3993;2.099
22.786000;-2.0902;0.1643;-0.1706;2.104
22.788000;-1.9807;-0.0656;0.1830;1.990
22.789000;-1.7385;-0.3516;0.4193;1.823
22.791000;-1.4151;-0.6684;0.3687;1.608
22.792000;-1.0305;-0.9798;-0.0488;1.423
22.793000;-0.6837;-1.1872;-0.7035;1.540
22.794000;-0.3971;-1.2303;-1.3784;1.890
22.803000;-0.1973;-1.1399;-1.9031;2.227
22.817000;-0.0705;-0.9940;-2.2763;2.485
22.823000;-0.0280;-0.8601;-2.5990;2.738
22.870000;-0.0452;-0.8190;-2.9424;3.055
22.872000;-0.1166;-0.8168;-3.2676;3.370
22.875000;-0.1148;-0.7262;-3.2528;3.335
22.876000;-0.0415;-0.5753;-2.7859;2.845
22.878000;0.0543;-0.4571;-2.1032;2.153
22.883000;0.2460;-0.4260;-1.5084;1.587
22.896000;0.5010;-0.3868;-1.1355;1.300
22.903000;0.7999;-0.3007;-0.9875;1.306
22.950000;1.0147;-0.1921;-1.0274;1.457
22.951000;1.1152;-0.1645;-1.1781;1.630
22.953000;1.2120;-0.1423;-1.4247;1.876
22.954000;1.3138;-0.1782;-1.5321;2.026
22.955000;1.4082;-0.2441;-1.4301;2.022
22.963000;1.3959;-0.3247;-1.2271;1.887
22.973000;1.2944;-0.5046;-1.0288;1.729
22.983000;1.1654;-0.7036;-0.6322;1.501
23.062000;0.9524;-0.9130;0.0647;1.321
23.065000;0.6806;-1.1785;0.7293;1.544
23.066000;0.2924;-1.6664;1.4098;2.202
23.067000;0.1102;-1.9237;1.6066;2.509
23.069000;0.0444;-2.0493;1.7243;2.679
23.069000;0.0504;-2.1858;1.9925;2.958
23.070000;0.1437;-2.2899;2.3193;3.262
23.071000;0.3176;-2.3357;2.9070;3.743
23.073000;0.6487;-2.1989;3.5852;4.256
23.083000;0.9246;-1.9875;4.0948;4.645
23.097000;1.1993;-1.6842;4.3170;4.787
23.103000;1.5000;-1.3884;4.1199;4.599
23.172000;1.7492;-1.1780;3.3084;3.923
23.174000;1.9008;-1.1984;2.1233;3.092
23.176000;2.0369;-1.4693;0.8783;2.661
23.177000;2.0566;-1.6332;-0.1545;2.631
23.178000;1.8224;-1.5408;-0.7680;2.507
23.179000;1.4296;-1.1332;-0.9291;2.047
23.180000;0.9069;-0.5038;-0.2926;1.078
23.183000;0.3700;0.0369;1.0581;1.122
23.194000;0.0742;0.3298;2.4303;2.454
23.203000;0.0048;0.3056;3.5342;3.547
23.216000;0.0482;0.0299;4.2401;4.240
23.224000;0.0674;-0.4078;4.5211;4.540
23.272000;0.0136;-0.7800;4.2742;4.345
23.274000;-0.0974;-0.9928;3.5362;3.674
23.276000;-0.2490;-1.0336;2.3416;2.572
23.277000;-0.5121;-0.8158;0.9816;1.375
23.277000;-0.7818;-0.4835;-0.0533;0.921
23.284000;-0.9879;-0.1753;-0.7419;1.248
23.297000;-1.2202;0.0288;-1.2398;1.740
23.303000;-1.5147;0.1345;-1.6876;2.272
23.350000;-1.8490;0.0886;-2.1056;2.804
23.353000;-2.1473;-0.0357;-2.5482;3.333
23.354000;-2.3949;-0.2233;-2.9831;3.832
23.356000;-2.5558;-0.5138;-3.6878;4.516
23.358000;-2.2765;-0.5067;-3.9040;4.548
23.364000;-1.8401;-0.3995;-4.1146;4.525
23.373000;-1.3571;-0.2023;-4.2465;4.463
23.384000;-0.8413;0.1083;-4.3287;4.411
23.439000;-0.2940;0.5393;-4.3193;4.363
23.441000;0.1696;0.9841;-4.1420;4.261
23.442000;0.6780;1.4237;-3.9938;4.294
23.444000;1.1450;1.8460;-3.8305;4.404
23.445000;1.4897;2.2262;-3.5245;4.427
23.447000;1.6100;2.4978;-3.0002;4.223
23.453000;1.5491;2.6734;-2.2768;3.838
23.463000;1.3451;2.7190;-1.5321;3.398
23.473000;1.1313;2.6602;-0.9419;3.040
23.483000;0.9221;2.5824;-0.4156;2.773
23.551000;0.6719;2.4349;0.1642;2.531
23.553000;0.3533;2.1848;0.6599;2.309
23.555000;0.0147;1.8726;1.0541;2.149
23.556000;-0.2734;1.5876;1.4959;2.198
23.557000;-0.4129;1.3649;2.0371;2.487
23.559000;-0.4583;1.2808;2.5910;2.926
23.560000;-0.5221;1.2461;3.0567;3.342
23.564000;-0.4734;1.2329;3.5796;3.815
23.573000;-0.2439;1.1923;4.0596;4.238
23.583000;-0.0220;1.0248;4.4292;4.546
23.640000;0.1072;0.7922;4.5122;4.582
23.644000;0.1159;0.5058;4.0619;4.095
23.646000;-0.1005;0.1331;3.1111;3.116
23.647000;-0.3864;-0.2165;2.2426;2.286
23.649000;-0.6803;-0.4746;2.0508;2.212
23.650000;-0.8861;-0.5206;2.8675;3.046
23.653000;-1.0801;-0.5110;4.5424;4.697
23.664000;-1.1243;-0.5998;6.1127;6.244
23.674000;-0.6644;-1.1316;6.4281;6.561
23.688000;-0.5608;-1.3906;5.3935;5.598
23.757000;-0.6114;-1.5430;4.1168;4.439
23.759000;-1.0344;-1.4436;1.4546;2.296
23.760000;-1.2008;-1.2588;0.4023;1.786
23.761000;-1.3057;-1.0078;-0.2788;1.673
23.762000;-1.3534;-0.8204;-0.6156;1.698
23.763000;-1.3768;-0.7771;-0.8930;1.816
23.764000;-1.3674;-0.8892;-1.2013;2.026
23.773000;-1.2888;-1.0600;-1.4690;2.223
23.783000;-1.0647;-1.2019;-1.7235;2.356
23.798000;-0.7509;-1.2924;-2.0347;2.525
23.803000;-0.4641;-1.3351;-2.4481;2.827
23.855000;-0.2048;-1.3130;-2.9114;3.200
23.857000;0.0387;-1.2163;-3.2975;3.515
23.858000;0.1746;-1.1238;-3.5489;3.727
23.860000;0.2332;-1.0627;-3.7590;3.913
23.862000;0.2433;-0.9709;-3.8671;3.995
23.865000;0.1699;-0.9227;-3.9932;4.102
23.873000;0.1212;-0.8659;-4.1538;4.245
23.884000;0.1150;-0.8270;-4.3021;4.382
23.935000;0.1220;-0.8050;-4.4149;4.489
23.937000;0.1506;-0.7856;-4.5049;4.575
23.938000;0.2477;-0.7080;-4.4914;4.554
23.939000;0.4286;-0.5670;-4.2953;4.354
23.941000;0.5592;-0.3539;-3.8776;3.934
23.947000;0.6437;-0.1374;-3.3325;3.397
23.953000;0.6907;0.0112;-2.6289;2.718
23.964000;0.7110;0.0424;-1.8247;1.959
23.973000;0.6572;-0.1004;-1.0033;1.204
23.983000;0.5206;-0.3975;-0.2916;0.717
24.046000;0.3854;-0.7668;0.1269;0.868
24.048000;0.2192;-1.1412;0.3105;1.203
24.049000;-0.0170;-1.4989;0.2190;1.515
24.050000;-0.1524;-1.4545;0.0120;1.462
24.050000;-0.2591;-1.1879;-0.1379;1.224
24.052000;-0.3084;-0.7572;-0.1605;0.833
24.053000;-0.3036;-0.3175;-0.0757;0.446
24.063000;-0.4039;0.0184;0.4788;0.627
24.073000;-0.5872;0.1977;1.7687;1.874
24.083000;-0.5979;0.1701;3.3621;3.419
24.138000;-0.5251;-0.0204;4.8863;4.914
24.140000;-0.2321;-0.3854;6.2216;6.238
24.141000;0.2395;-0.8161;7.0756;7.126
24.144000;0.8933;-1.1427;7.2778;7.421
24.146000;1.5995;-1.3013;6.9089;7.210
24.148000;1.9260;-1.1430;6.4393;6.818
24.153000;1.7406;-0.5612;6.2184;6.482
24.163000;1.1815;0.0777;6.0225;6.138
24.173000;0.7343;0.1990;5.4012;5.455
24.183000;0.2456;-0.1425;4.5830;4.592
24.256000;-0.1839;-0.8147;3.9459;4.033
24.258000;-0.3796;-1.5287;3.5478;3.882
24.260000;-0.2685;-2.0885;3.1363;3.778
24.261000;0.1201;-2.4057;2.6130;3.554
24.264000;0.6305;-2.4056;2.0228;3.206
24.265000;0.8103;-2.1635;1.4667;2.737
24.266000;0.8869;-1.6609;0.8151;2.052
24.308000;0.6439;-0.7178;-0.1109;0.971
24.310000;0.4240;-0.4440;-0.2441;0.661
24.311000;0.1679;-0.4260;-0.1292;0.476
24.311000;-0.0297;-0.5816;0.2048;0.617
24.362000;-0.0210;-0.7120;0.3383;0.789
24.365000;-0.0026;-0.8845;0.4566;0.995
24.366000;0.1555;-1.0139;0.6610;1.220
24.366000;0.7097;-1.1173;0.1518;1.332
24.368000;0.7504;-1.1052;-0.1692;1.347
24.369000;0.7841;-0.9019;-0.4387;1.273
24.373000;0.8145;-0.6623;-0.9906;1.443
24.383000;0.7831;-0.4456;-1.6976;1.922
24.398000;0.6775;-0.2340;-2.1317;2.249
24.403000;0.5558;-0.0574;-2.2962;2.363
24.451000;0.3922;0.0746;-2.2281;2.264
24.453000;0.0895;-0.0136;-1.8821;1.884
24.454000;-0.1896;-0.3455;-1.3227;1.380
24.455000;-0.3232;-0.6777;-0.8031;1.099
24.456000;-0.2776;-0.9325;-0.4474;1.071
24.465000;-0.1197;-1.0835;-0.1540;1.101
24.473000;0.0136;-1.1705;0.0537;1.172
24.483000;0.1041;-1.2669;-0.0164;1.271
24.535000;0.2150;-1.2400;-0.3577;1.308
24.537000;0.2786;-1.0679;-0.8892;1.417
24.538000;0.2476;-0.7955;-1.2927;1.538
24.539000;0.2120;-0.4987;-1.3517;1.456
24.540000;0.2878;-0.2821;-1.2926;1.354
24.547000;0.3394;-0.0678;-0.8966;0.961
24.553000;0.4099;0.0584;-0.1921;0.456
24.563000;0.6020;-0.0677;0.4822;0.774
24.573000;0.8024;-0.2983;0.9656;1.290
24.584000;0.9634;-0.5131;1.0718;1.530
24.650000;0.9642;-0.8137;0.8486;1.520
24.651000;1.0412;-1.1023;0.3482;1.556
24.652000;1.0370;-1.1583;-0.1538;1.562
24.653000;0.9186;-1.0252;-0.4505;1.448
24.654000;0.7964;-0.7718;-0.5194;1.225
24.655000;0.6080;-0.5022;-0.4188;0.893
24.656000;0.6042;-0.2988;0.1470;0.690
24.663000;-0.0977;-0.2657;0.8128;0.861
24.673000;-0.0485;-0.5669;1.6839;1.777
24.683000;0.0062;-0.8348;1.7530;1.942
24.741000;0.0209;-1.0799;1.4806;1.833
24.744000;0.0609;-1.1434;1.0389;1.546
24.746000;0.0848;-1.0195;0.5150;1.145
24.747000;0.0596;-0.8668;-0.0428;0.870
24.748000;-0.0206;-0.7597;-0.5429;0.934
24.749000;0.0300;-0.6399;-0.7211;0.965
24.754000;0.0500;-0.5208;-0.5552;0.763
24.763000;0.0865;-0.2569;-0.2933;0.399
24.773000;0.2237;-0.0043;-0.1940;0.296
24.784000;0.3990;0.2054;-0.2491;0.513
24.849000;0.6161;0.3265;-0.4897;0.852
24.852000;0.7772;0.3293;-0.8258;1.181
24.853000;0.8313;0.2454;-1.1507;1.441
24.854000;0.7463;0.1734;-1.3790;1.578
24.856000;0.6381;0.1476;-1.4596;1.600
24.857000;0.4830;0.1176;-1.4691;1.551
24.858000;0.2507;0.1439;-1.3741;1.404
24.863000;-0.0668;0.2073;-1.0442;1.067
24.873000;-0.4050;0.2608;-0.4141;0.635
24.883000;-0.5629;0.2724;0.1918;0.654
24.944000;-0.5538;0.2251;0.6517;0.884
24.946000;-0.5623;0.1609;0.9531;1.118
24.948000;-0.5916;0.0103;0.9800;1.145
24.949000;-0.6048;-0.1525;0.7380;0.966
24.950000;-0.6395;-0.1860;0.4805;0.821
24.951000;-0.7395;-0.0872;0.2725;0.793
24.953000;-0.8763;0.0426;0.2642;0.916
24.963000;-0.9708;0.1731;0.4098;1.068
24.973000;-1.0066;0.2414;0.6447;1.219
24.983000;-1.0191;0.2405;0.9216;1.395
25.052000;-0.9906;0.1779;1.1691;1.543
25.053000;-0.9648;0.0705;1.1443;1.498
25.054000;-0.8070;-0.0633;0.9178;1.224
25.055000;-0.6828;-0.0103;0.7217;0.994
25.056000;-0.5401;0.1285;0.5509;0.782
25.056000;-0.3965;0.2829;0.3705;0.612
25.058000;-0.2765;0.4619;0.2143;0.579
25.065000;-0.1432;0.6860;0.1519;0.717
25.073000;-0.0022;0.8163;0.1310;0.827
25.083000;0.0862;0.8483;0.1121;0.860
25.094000;0.0581;0.7883;-0.0160;0.791
25.141000;-0.0481;0.7211;-0.3492;0.803
25.144000;-0.1641;0.7451;-0.6460;1.000
25.146000;-0.2937;0.7940;-0.8113;1.173
25.146000;-0.4044;0.8509;-0.8623;1.277
25.147000;-0.4424;0.9020;-0.8109;1.291
25.153000;-0.2936;0.9089;-0.7150;1.193
25.163000;-0.0844;0.8925;-0.6129;1.086
25.173000;0.0159;0.8497;-0.5801;1.029
25.183000;0.0067;0.7474;-0.7036;1.026
25.194000;-0.0484;0.6674;-0.8373;1.072
25.254000;-0.1011;0.6064;-0.8218;1.026
25.256000;-0.1103;0.5815;-0.6900;0.909
25.257000;-0.1073;0.5533;-0.4908;0.747
25.258000;-0.0896;0.5300;-0.1826;0.568
25.261000;-0.0246;0.5032;0.1688;0.531
25.262000;0.0310;0.4519;0.4274;0.623
25.264000;0.0626;0.4002;0.5162;0.656
25.273000;0.0415;0.4198;0.6167;0.747
25.287000;0.0049;0.4134;0.7652;0.870
25.344000;0.0128;0.3880;0.8753;0.958
25.345000;0.0665;0.3604;0.8087;0.888
25.346000;0.1512;0.3696;0.6331;0.748
25.348000;0.2219;0.4515;0.4549;0.678
25.349000;0.2293;0.5427;0.2706;0.648
25.350000;0.1610;0.6428;0.0875;0.668
25.355000;0.1792;0.7155;-0.1334;0.750
25.366000;0.0240;0.6217;-0.3919;0.735
25.373000;-0.1416;0.5185;-0.6010;0.806
25.383000;-0.2506;0.4122;-0.5792;0.754
25.393000;-0.2541;0.4006;-0.3321;0.579
25.437000;-0.1360;0.3963;-0.0849;0.427
25.438000;-0.0179;0.3564;0.1205;0.377
25.441000;0.0048;0.3077;0.2526;0.398
25.442000;0.0046;0.2907;0.2827;0.406
25.444000;0.0252;0.2813;0.1567;0.323
25.453000;0.0089;0.2556;-0.0716;0.266
25.468000;0.0181;0.2737;-0.3064;0.411
25.473000;0.0572;0.3208;-0.4259;0.536
25.520000;0.0801;0.3552;-0.3900;0.534
25.521000;0.0705;0.3632;-0.2410;0.442
25.522000;0.0964;0.4077;-0.1222;0.436
25.523000;0.1092;0.4411;-0.0129;0.455
25.524000;0.1287;0.4793;0.1121;0.509
25.533000;0.1129;0.4892;0.2725;0.571
25.543000;0.0751;0.4626;0.3171;0.566
25.553000;-0.0069;0.4384;0.2066;0.485
25.568000;-0.1657;0.3153;0.1093;0.373
25.573000;-0.2838;0.3124;0.0465;0.425
25.635000;-0.3940;0.2404;-0.0158;0.462
25.637000;-0.4119;0.2023;-0.0035;0.459
25.637000;-0.3929;0.2322;0.0203;0.457
25.638000;-0.4151;0.1968;0.0447;0.462
25.640000;-0.4212;0.1443;0.0785;0.452
25.641000;-0.4070;0.1200;0.0664;0.430
25.643000;-0.3706;0.0923;0.1218;0.401
25.653000;-0.2992;0.0720;0.2328;0.386
25.667000;-0.2343;0.1115;0.1886;0.321
25.673000;-0.1283;0.1943;0.4090;0.471
25.727000;-0.0777;0.2022;0.6314;0.668
25.729000;0.0099;0.2637;0.7566;0.801
25.730000;0.0487;0.2229;0.7165;0.752
25.730000;0.1044;0.0935;0.5271;0.545
25.731000;0.1202;0.0794;0.2462;0.285
25.733000;0.0584;0.1260;0.0836;0.162
25.743000;0.0559;0.1143;-0.0548;0.139
25.753000;0.0460;0.1392;0.0273;0.149
25.767000;0.0440;0.2234;0.2612;0.347
25.773000;0.1675;0.2226;0.3002;0.410
25.820000;0.3005;0.1842;0.3171;0.474
25.822000;0.4473;0.2163;0.4410;0.664
25.824000;0.5334;0.1758;0.5127;0.760
25.825000;0.5380;0.1671;0.4363;0.713
25.826000;0.5017;0.1590;0.1181;0.539
25.833000;0.3208;0.0632;-0.3390;0.471
25.843000;-0.0916;-0.0828;-1.2519;1.258
25.853000;-0.5834;-0.1964;-2.4069;2.484
25.866000;-0.1821;-0.1905;-2.4737;2.488
25.873000;0.0423;-0.0702;-1.2390;1.242
25.920000;0.0007;0.1247;0.4461;0.463
25.921000;-0.1445;0.1378;1.2837;1.299
25.922000;-0.2934;-0.0569;1.4284;1.459
25.922000;-0.3140;-0.2266;1.4025;1.455
25.932000;-0.0903;-0.2741;0.9825;1.024
25.934000;0.0143;-0.2924;0.1822;0.345
25.943000;-0.0934;-0.2966;-0.6440;0.715
25.953000;-0.0552;-0.1094;-1.0365;1.044
25.964000;0.0952;0.1665;-0.9822;1.001
