time;ax;ay;az;aT
0.003000;-0.7046;0.5079;-2.1902;2.356
0.008000;-0.1826;0.9094;-0.7951;1.222
0.017000;0.3027;1.2280;0.5196;1.367
0.027000;0.5191;1.2683;1.4402;1.988
0.040000;0.6582;1.1397;1.8451;2.266
0.047000;0.5307;0.8811;1.7632;2.041
0.057000;0.2697;0.5698;1.3185;1.461
0.068000;-0.0234;0.2557;0.6723;0.720
0.077000;-0.2699;0.0185;0.0852;0.284
0.088000;-0.3783;-0.0711;-0.2807;0.476
0.098000;-0.4444;-0.0931;-0.2987;0.543
0.107000;-0.4044;-0.0661;-0.1020;0.422
0.117000;-0.2345;-0.0524;0.1280;0.272
0.127000;-0.1399;-0.1153;0.3305;0.377
0.138000;-0.1673;-0.2083;0.5057;0.572
0.148000;-0.1825;-0.2967;0.6143;0.706
0.157000;-0.2139;-0.4277;0.5153;0.703
0.167000;-0.2595;-0.5297;0.2615;0.645
0.177000;-0.3378;-0.5287;-0.0741;0.632
0.188000;-0.2030;-0.4135;-0.2973;0.548
0.197000;-0.0725;-0.2427;-0.4581;0.523
0.208000;-0.0202;-0.0842;-0.5195;0.527
0.217000;0.0482;0.0674;-0.4682;0.475
0.228000;0.1281;0.1695;-0.4391;0.488
0.238000;0.1220;0.1707;-0.5769;0.614
0.247000;0.0644;0.0925;-0.6967;0.706
0.257000;0.0270;0.0574;-0.5144;0.518
0.267000;0.0163;0.0046;-0.1439;0.145
0.278000;0.0119;-0.0504;0.1620;0.170
0.288000;-0.0306;-0.1588;0.3440;0.380
0.297000;-0.0749;-0.2687;0.3721;0.465
0.307000;-0.1325;-0.3003;0.3981;0.516
0.317000;-0.1320;-0.2831;0.3546;0.473
0.327000;-0.1487;-0.2820;0.1903;0.371
0.338000;-0.1945;-0.2775;0.0738;0.347
0.348000;-0.2761;-0.2549;0.1167;0.393
0.357000;-0.3239;-0.1974;0.2740;0.468
0.368000;-0.2576;-0.1251;0.3695;0.467
0.378000;-0.2130;-0.1213;0.3345;0.415
0.388000;-0.2184;-0.1123;0.2327;0.338
0.397000;-0.2120;-0.0873;0.1274;0.262
0.408000;-0.1602;-0.0512;0.0078;0.168
0.417000;-0.1187;-0.0018;-0.1194;0.168
0.427000;-0.1002;0.0563;-0.1768;0.211
0.438000;-0.0477;0.1233;-0.1550;0.204
0.447000;0.0498;0.2075;-0.0744;0.226
0.457000;0.1755;0.3014;-0.0126;0.349
0.467000;0.2597;0.3772;-0.0363;0.459
0.478000;0.3085;0.4112;-0.1050;0.525
0.488000;0.3249;0.4577;-0.2010;0.596
0.497000;0.2817;0.4518;-0.2062;0.571
0.508000;0.0728;0.3705;0.0414;0.380
0.517000;0.0195;0.3257;0.3487;0.478
0.528000;0.0014;0.2942;0.7183;0.776
0.538000;0.0087;0.2662;0.9448;0.982
0.551000;0.0228;0.2352;0.9685;0.997
0.558000;0.0785;0.2520;0.8572;0.897
0.568000;0.1520;0.2912;0.6474;0.726
0.578000;0.1839;0.3249;0.4477;0.583
0.589000;0.1763;0.3486;0.2087;0.443
0.598000;0.1306;0.3720;-0.0085;0.394
0.608000;0.0954;0.3543;-0.1776;0.408
0.618000;0.0755;0.3264;-0.3083;0.455
0.628000;0.0743;0.2848;-0.3540;0.460
0.638000;0.1292;0.2647;-0.2766;0.404
0.651000;0.2008;0.2506;-0.1682;0.363
0.658000;0.2474;0.2138;-0.1329;0.353
0.668000;0.2741;0.1893;-0.2007;0.389
0.678000;0.2769;0.1966;-0.2017;0.395
0.688000;0.2614;0.2049;-0.1242;0.355
0.698000;0.2084;0.1632;-0.0006;0.265
0.709000;0.1479;0.0751;0.0710;0.180
0.717000;0.0651;-0.0319;0.0775;0.106
0.728000;-0.0198;-0.1242;0.1038;0.163
0.738000;-0.0568;-0.1666;0.1818;0.253
0.751000;-0.0948;-0.2084;0.2579;0.345
0.759000;-0.1369;-0.2342;0.3321;0.429
0.768000;-0.1620;-0.2731;0.4322;0.536
0.778000;-0.1766;-0.2781;0.4688;0.573
0.788000;-0.1785;-0.2437;0.4660;0.555
0.798000;-0.1592;-0.2143;0.3929;0.475
0.809000;-0.1194;-0.1391;0.3214;0.370
0.818000;-0.0433;-0.0721;0.1775;0.196
0.828000;0.0133;-0.0396;-0.0366;0.056
0.838000;-0.0189;0.0003;-0.3664;0.367
0.850000;-0.0794;0.0018;-0.4113;0.419
0.859000;-0.1388;-0.0116;-0.4064;0.430
0.868000;-0.1841;-0.0551;-0.3052;0.361
0.878000;-0.2256;-0.1065;-0.1785;0.307
0.888000;-0.2187;-0.1142;0.0024;0.247
0.898000;-0.1494;-0.0885;0.1760;0.247
0.909000;-0.1259;-0.1009;0.2237;0.276
0.918000;-0.1489;-0.1253;0.1430;0.241
0.928000;-0.1743;-0.0908;0.0811;0.213
0.937000;-0.1866;-0.0342;0.1059;0.217
0.949000;-0.2131;0.0116;0.1384;0.254
0.958000;-0.2662;-0.0001;0.1159;0.290
0.967000;-0.2652;-0.0601;0.0859;0.285
0.978000;-0.2229;-0.1150;0.0663;0.259
0.988000;-0.2363;-0.1723;-0.0044;0.293
0.998000;-0.2577;-0.1768;-0.0880;0.325
1.008000;-0.2781;-0.1526;-0.1103;0.336
1.018000;-0.2388;-0.0636;0.0211;0.248
1.029000;-0.1484;0.0400;0.2066;0.258
1.039000;-0.0990;0.1230;0.3518;0.386
1.048000;-0.1072;0.1379;0.3602;0.400
1.063000;-0.1114;0.1366;0.2234;0.285
1.070000;-0.0825;0.1401;0.1166;0.200
1.082000;0.0126;0.1702;0.0668;0.183
1.088000;0.0391;0.2005;0.0986;0.227
1.098000;0.0394;0.2012;0.1533;0.256
1.108000;0.0314;0.1493;0.1354;0.204
1.118000;-0.0683;0.1531;0.0462;0.174
1.128000;-0.1824;0.2705;-0.0827;0.337
1.138000;-0.2567;0.3841;-0.1140;0.476
1.149000;-0.3521;0.3686;-0.0813;0.516
1.175000;-0.4696;0.2373;-0.0613;0.530
1.178000;-0.5375;-0.0133;0.4164;0.680
1.179000;-0.5908;-0.2037;0.4834;0.790
1.188000;-0.4312;-0.1436;0.3398;0.567
1.198000;-0.0866;0.1276;0.7880;0.803
1.209000;-0.0075;0.1025;0.4248;0.437
1.218000;-0.1419;0.0390;0.3030;0.337
1.228000;-0.1169;0.1589;0.1606;0.254
1.238000;-0.6439;0.1721;0.0816;0.671
1.248000;0.5280;0.3040;-0.1973;0.640
1.271000;1.4393;0.4568;-0.1221;1.515
1.273000;1.1651;0.4881;0.2222;1.283
1.282000;1.0824;0.5051;0.4347;1.271
1.288000;0.9442;0.5593;0.8348;1.379
1.298000;0.3801;0.6358;1.8968;2.036
1.309000;-0.1933;0.6151;3.2207;3.285
1.317000;-1.2151;-0.1402;4.7076;4.864
1.328000;-1.4065;-0.2292;4.2369;4.470
1.338000;0.1061;-0.0747;3.6914;3.694
1.349000;1.7997;-0.5854;3.0481;3.588
1.364000;3.0278;-1.1750;0.0576;3.248
1.368000;3.9753;-0.2676;-8.3612;9.262
1.378000;2.1819;1.9221;-8.9501;9.411
1.388000;0.1229;2.7618;-2.5827;3.783
1.398000;-0.1999;2.7119;0.0752;2.720
1.409000;-0.7954;2.2671;0.2217;2.413
1.418000;-0.9918;1.6525;-0.6742;2.042
1.428000;-0.7204;0.9820;-0.5395;1.332
1.437000;-0.6400;0.3281;0.8687;1.128
1.448000;-0.8892;-0.2200;2.4103;2.578
1.462000;-0.8120;-0.5029;1.2390;1.564
1.469000;-0.9633;-0.7218;1.1460;1.662
1.478000;-0.8296;-0.6753;0.5636;1.209
1.488000;-0.3589;-0.4517;-0.6192;0.846
1.498000;0.5602;0.6025;-2.3621;2.501
1.509000;0.5737;1.1261;-2.3316;2.652
1.518000;0.5466;1.4688;-1.8658;2.437
1.528000;0.8016;1.5993;-1.2683;2.193
1.538000;0.6893;0.8573;-0.7052;1.307
1.549000;0.6658;0.5662;-0.5287;1.022
1.564000;0.8594;0.8773;0.4858;1.321
1.568000;0.9501;1.2758;1.8656;2.452
1.577000;1.3992;1.4260;1.8867;2.748
1.588000;1.6622;1.3751;1.2636;2.500
1.598000;1.2919;1.2385;0.8353;1.975
1.610000;1.0065;1.1450;0.1492;1.532
1.617000;0.8155;1.1063;-0.3344;1.415
1.628000;1.0156;1.0591;-0.7734;1.659
1.638000;0.8697;0.8796;-0.8734;1.514
1.648000;0.2764;0.7563;-0.7026;1.069
1.674000;-0.1428;0.7387;-0.7435;1.058
1.676000;-0.6872;0.7927;-1.0238;1.466
1.678000;-0.8148;0.8918;-1.4389;1.879
1.688000;-0.6805;1.0348;-1.6772;2.085
1.698000;-0.4229;1.2196;-1.7239;2.154
1.709000;-0.0255;1.2549;-1.8483;2.234
1.718000;0.2291;1.2719;-1.9978;2.379
1.729000;0.3225;1.2649;-2.6320;2.938
1.738000;0.3632;1.1753;-3.3599;3.578
1.748000;0.8493;1.1069;-4.1134;4.344
1.768000;1.3576;1.1128;-4.2322;4.582
1.770000;1.0647;0.7705;-3.6740;3.902
1.778000;0.0804;0.5403;-2.8060;2.859
1.788000;-1.1566;0.6818;-1.1297;1.755
1.798000;-1.4922;0.8617;0.8484;1.921
1.810000;-1.1846;0.8023;2.0373;2.490
1.818000;-0.9579;0.6398;2.4029;2.665
1.828000;-0.1924;0.0309;2.2971;2.305
1.838000;-0.0574;0.1313;1.0096;1.020
1.849000;-0.7120;0.1635;-0.0791;0.735
1.863000;-1.3841;0.3228;-0.8299;1.646
1.869000;-1.5990;0.4894;-1.1850;2.050
1.880000;-1.3884;0.6827;-1.0362;1.862
1.888000;-1.2260;0.8246;-0.2794;1.504
1.898000;-1.6094;0.8046;1.0627;2.090
1.910000;-1.9321;0.7893;2.5147;3.268
1.918000;-1.8533;0.7024;3.1169;3.694
1.928000;-1.8338;0.3738;2.9580;3.500
1.938000;-1.4648;0.1886;3.4836;3.784
1.948000;-0.9548;-0.2828;2.9260;3.091
1.965000;-1.2210;-0.5938;2.4671;2.816
1.969000;-1.5103;-0.6141;2.5116;2.994
1.977000;-1.0888;-0.4556;2.5665;2.825
1.988000;0.0654;-0.3535;3.0119;3.033
1.998000;0.3656;0.3603;5.8300;5.853
2.010000;0.1187;0.4771;7.5244;7.540
2.018000;-0.1280;-0.0493;7.0965;7.098
2.028000;-0.2040;-0.6341;6.0827;6.119
2.038000;-0.6602;-1.3773;4.5639;4.813
2.048000;-1.3263;-2.3546;2.7311;3.842
2.070000;-2.0757;-3.4254;1.2029;4.182
2.073000;-2.1258;-4.0815;-0.1205;4.603
2.085000;-1.8327;-4.1007;-1.0830;4.620
2.089000;-1.4336;-3.7138;-1.5226;4.262
2.099000;-1.0495;-3.2803;-1.7700;3.872
2.109000;-0.7281;-2.9599;-1.7683;3.524
2.117000;-0.6825;-2.7796;-1.2778;3.134
2.128000;-0.3650;-1.9864;-0.3786;2.055
2.138000;-0.1537;-0.7543;1.2602;1.477
2.148000;0.2237;0.1241;2.6104;2.623
2.161000;0.3600;0.1686;3.6494;3.671
2.168000;0.0843;-1.2072;1.4975;1.925
2.177000;-0.4975;-1.2213;0.9809;1.644
2.187000;-0.7754;-0.8625;-0.5857;1.299
2.197000;-0.1525;-0.3424;-2.9620;2.986
2.210000;0.3599;0.1662;-6.1198;6.133
2.217000;0.8947;0.5182;-7.1014;7.176
2.228000;1.6779;0.6812;-5.1546;5.463
2.238000;0.3576;0.2852;-3.5770;3.606
2.248000;-0.3007;-0.2472;-2.3336;2.366
2.262000;-0.1427;-0.6116;-1.8683;1.971
2.268000;0.2334;-0.5901;-1.7281;1.841
2.278000;0.4661;-0.2376;-2.2329;2.293
2.288000;0.3746;0.0620;-2.9515;2.976
2.298000;0.4063;0.4159;-3.2417;3.293
2.308000;0.4443;0.7869;-3.1715;3.298
2.317000;0.2882;0.9134;-2.5330;2.708
2.328000;0.1558;0.8548;-1.7455;1.950
2.337000;-0.1673;0.5774;-1.8901;1.983
2.348000;-0.8635;0.1243;-2.5081;2.655
2.360000;-1.6836;-0.1416;-2.4002;2.935
2.368000;-2.0398;-0.1919;-2.3109;3.088
2.379000;-1.7581;-0.1930;-2.1148;2.757
2.388000;-1.4586;-0.2782;-1.5884;2.174
2.398000;-1.1470;-0.3194;-0.7315;1.397
2.408000;-0.8054;-0.2137;0.3639;0.909
2.417000;-0.4810;-0.0741;1.1361;1.236
2.428000;-0.2650;0.0061;1.1935;1.223
2.437000;-0.2110;0.1536;0.9503;0.986
2.448000;-0.1801;0.2585;1.4909;1.524
2.462000;-0.2667;0.4331;1.2527;1.352
2.469000;-0.5953;0.6127;0.6938;1.101
2.477000;-0.6456;0.6947;0.3657;1.016
2.488000;-0.7252;0.5838;0.2773;0.971
2.498000;-1.4532;-0.2834;1.5705;2.158
2.508000;-1.2484;-0.5073;1.6933;2.164
2.518000;-0.9505;-0.4541;1.5056;1.838
2.529000;-0.7789;-0.4234;1.4327;1.685
2.538000;-0.6049;-0.4487;1.6690;1.831
2.548000;-0.3702;-0.4914;2.0701;2.160
2.559000;-0.0687;-0.4034;2.3840;2.419
2.569000;0.3086;-0.3289;2.2939;2.338
2.593000;0.6774;-0.2228;2.1688;2.283
2.595000;0.9824;-0.0933;1.9543;2.189
2.599000;1.2016;-0.0460;1.7072;2.088
2.608000;1.4918;0.0403;1.4610;2.088
2.618000;1.5774;0.0012;1.0845;1.914
2.628000;1.4241;-0.2477;0.6444;1.583
2.639000;1.2049;-0.5186;0.3539;1.359
2.648000;1.2365;-0.5769;0.3324;1.404
2.659000;1.4201;-0.5560;0.4409;1.588
2.668000;1.4821;-0.6421;0.4842;1.686
2.692000;1.5848;-0.8003;0.6135;1.878
2.695000;1.5765;-1.0252;0.8152;2.050
2.698000;1.6165;-1.2142;1.0276;2.268
2.708000;1.6780;-1.3272;1.3702;2.541
2.718000;1.7520;-1.3552;1.5887;2.726
2.729000;1.7828;-1.3814;1.5871;2.758
2.738000;1.6592;-1.4359;1.3496;2.576
2.748000;1.5024;-1.3921;0.9933;2.276
2.758000;1.3906;-1.2124;0.3007;1.869
2.768000;1.1080;-1.0246;-0.4390;1.572
2.788000;0.6553;-0.9324;-0.8381;1.415
2.790000;0.3777;-0.8058;-1.1092;1.422
2.798000;0.3152;-0.6666;-1.2028;1.411
2.808000;0.2212;-0.5377;-0.9824;1.142
2.818000;-0.0319;-0.6362;-0.5895;0.868
2.828000;0.1483;-0.7072;-0.3246;0.792
2.838000;0.5308;-0.3733;-0.4320;0.780
2.848000;0.7153;-0.0407;-0.7213;1.017
2.858000;0.8637;0.2734;-1.0898;1.417
2.868000;0.9875;0.6557;-1.3856;1.823
2.877000;0.9321;0.8900;-1.5510;2.017
2.887000;0.8595;0.9352;-1.6158;2.055
2.898000;0.7710;0.8418;-1.5158;1.898
2.908000;0.5667;0.7202;-1.1635;1.481
2.918000;0.3550;0.5582;-0.6959;0.960
2.929000;0.1659;0.3087;-0.6827;0.767
2.938000;-0.0460;0.1099;-0.8120;0.821
2.948000;-0.2553;-0.0431;-0.9716;1.005
2.957000;-0.5112;-0.1078;-1.1033;1.221
2.968000;-0.5780;0.0653;-1.3300;1.452
2.981000;-0.4558;0.3646;-1.5274;1.635
2.988000;-0.2667;0.6329;-1.4616;1.615
2.998000;-0.1460;0.7778;-1.3625;1.576
3.008000;-0.0814;0.8118;-1.1991;1.450
3.018000;0.0121;0.8759;-0.7583;1.159
3.028000;0.0362;0.8582;-0.1296;0.869
3.037000;-0.0305;0.7692;0.1137;0.778
3.048000;-0.1021;0.7781;0.0031;0.785
3.058000;-0.0766;0.9316;-0.2067;0.957
3.068000;-0.0776;1.0789;-0.2766;1.116
3.081000;-0.0034;1.1436;-0.3969;1.210
3.088000;0.1220;1.1879;-0.5735;1.325
3.098000;0.2963;1.3651;-0.5012;1.484
3.108000;0.4868;1.6275;-0.4297;1.752
3.118000;0.4232;1.7072;-0.2156;1.772
3.129000;0.2632;1.5152;0.2182;1.553
3.137000;0.0234;1.1432;0.8027;1.397
3.148000;-0.2198;0.7701;1.2816;1.511
3.157000;-0.4027;0.5294;2.6790;2.760
3.168000;-0.7614;0.2787;3.8041;3.890
3.182000;-1.1180;0.1928;4.6440;4.781
3.188000;-1.4095;0.2119;4.6424;4.856
3.198000;-1.5564;0.4546;3.4042;3.771
3.208000;-1.5481;0.8894;1.7404;2.493
3.218000;-1.4899;1.2108;0.5003;1.984
3.228000;-1.3032;1.4937;-0.2333;1.996
3.237000;-1.1412;1.6867;0.0048;2.036
3.248000;-1.2722;1.5416;1.1426;2.302
3.258000;-1.5557;1.0818;2.1888;2.895
3.269000;-1.8728;0.4723;2.9350;3.513
3.299000;-2.0730;-0.1570;3.1901;3.808
3.302000;-2.0547;-0.6526;2.9131;3.624
3.305000;-1.8588;-0.8692;2.4055;3.162
3.309000;-1.5159;-0.7303;1.7157;2.403
3.318000;-1.1075;-0.3595;0.9790;1.521
3.329000;-0.7692;-0.0885;0.4063;0.874
3.338000;-0.5684;-0.0364;0.0135;0.570
3.349000;-0.3969;-0.1313;-0.2124;0.469
3.358000;-0.2718;-0.2923;-0.1993;0.446
3.369000;-0.2262;-0.5085;-0.0442;0.558
3.392000;-0.3407;-0.8795;0.2079;0.966
3.394000;-0.4651;-1.3017;0.3848;1.435
3.398000;-0.4611;-1.5612;0.2386;1.645
3.408000;-0.3080;-1.5562;-0.3048;1.615
3.418000;0.0257;-1.3770;-0.9872;1.694
3.429000;0.3881;-1.1865;-1.6126;2.039
3.438000;0.6592;-1.0234;-2.0884;2.417
3.448000;0.8063;-0.7888;-2.3366;2.595
3.458000;0.7425;-0.6487;-2.3443;2.543
3.468000;0.5536;-0.6550;-2.3600;2.511
3.483000;0.3017;-0.7431;-2.1818;2.324
3.488000;-0.0616;-0.8422;-1.9416;2.117
3.498000;-0.2365;-0.6322;-2.0444;2.153
3.508000;-0.3483;-0.5427;-2.0367;2.136
3.518000;-0.5385;-0.5010;-2.1527;2.275
3.529000;-0.5204;-0.3229;-2.2608;2.342
3.538000;-0.3857;-0.0325;-2.1669;2.201
3.548000;-0.4753;0.0211;-1.6381;1.706
3.558000;-0.5211;-0.0926;-1.1855;1.298
3.569000;-0.5520;-0.1306;-0.9183;1.079
3.586000;-0.5238;-0.1089;-0.5569;0.772
3.589000;-0.4463;-0.1213;-0.0276;0.463
3.598000;-0.3731;-0.1381;0.2306;0.460
3.608000;-0.3148;-0.0742;0.1146;0.343
3.618000;-0.2537;0.1484;-0.0267;0.295
3.629000;-0.2771;0.3741;-0.0091;0.466
3.637000;-0.4295;0.4725;-0.1178;0.649
3.648000;-0.5215;0.5550;-0.4486;0.884
3.658000;-0.4974;0.6787;-0.8816;1.219
3.668000;-0.3145;0.8576;-1.1296;1.453
3.693000;-0.1582;1.0208;-0.9859;1.428
3.697000;0.0696;1.1391;-0.5773;1.279
3.700000;0.1871;1.1668;-0.0735;1.184
3.708000;0.0240;1.0161;0.4037;1.094
3.718000;-0.2545;0.7505;0.5293;0.953
3.729000;-0.6090;0.5172;0.4516;0.918
3.738000;-0.8392;0.3570;0.3861;0.990
3.748000;-0.8918;0.2844;0.4576;1.042
3.758000;-0.9593;0.2896;0.3434;1.059
3.771000;-0.9419;0.3626;0.3357;1.064
3.796000;-0.7853;0.4012;0.6328;1.085
3.799000;-0.5969;0.3270;1.2829;1.452
3.800000;-0.4405;0.2033;2.3221;2.372
3.808000;-0.3881;0.1391;3.0085;3.037
3.819000;-0.2815;0.1263;3.2878;3.302
3.832000;0.4542;0.1734;3.1696;3.207
3.838000;0.7205;0.1223;3.0156;3.103
3.848000;0.9391;-0.0453;2.9496;3.096
3.858000;1.1141;-0.2931;2.9322;3.150
3.869000;1.1870;-0.4675;2.8909;3.160
3.894000;1.1845;-0.5469;2.8342;3.120
3.898000;0.9665;-0.6156;2.9412;3.157
3.900000;0.8440;-0.5735;2.9597;3.131
3.908000;0.9548;-0.4725;2.4289;2.652
3.918000;0.9773;-0.4668;1.5834;1.918
3.929000;0.8735;-0.4433;0.9743;1.382
3.938000;0.7865;-0.3587;0.5351;1.017
3.948000;0.8861;-0.2399;0.1292;0.927
3.958000;0.8901;-0.2182;-0.1077;0.923
3.969000;0.7854;-0.3381;-0.2480;0.890
3.998000;0.6496;-0.5757;-0.2017;0.891
4.001000;0.5679;-0.8747;0.1630;1.056
4.002000;0.3382;-1.2343;0.7642;1.491
4.008000;0.0787;-1.5736;1.2803;2.030
4.018000;-0.1567;-1.7980;1.4353;2.306
4.033000;-0.3698;-1.9261;1.2955;2.351
4.039000;-0.4222;-1.8965;0.8781;2.132
4.048000;-0.3090;-1.7065;0.0682;1.736
4.058000;-0.0956;-1.3785;-0.8562;1.626
4.068000;0.2194;-0.9854;-1.6863;1.965
4.086000;0.4780;-0.5854;-2.0936;2.226
4.089000;0.6318;-0.2859;-2.3405;2.441
4.098000;0.8141;-0.0105;-2.4581;2.589
4.108000;1.0007;0.2379;-2.4484;2.656
4.118000;1.0377;0.4206;-2.2769;2.537
4.129000;1.0638;0.5303;-2.1332;2.442
4.137000;1.0144;0.5875;-2.1336;2.434
4.148000;0.8622;0.5515;-2.1301;2.363
4.158000;0.5116;0.4701;-2.3509;2.451
4.168000;0.3643;0.4872;-2.3622;2.439
4.195000;0.2854;0.5068;-2.3057;2.378
4.198000;0.1863;0.4260;-1.9877;2.041
4.199000;0.1177;0.3483;-1.7413;1.780
4.208000;0.0243;0.2786;-1.6179;1.642
4.218000;-0.1282;0.1816;-1.4324;1.450
4.230000;-0.1605;0.1126;-1.1555;1.172
4.238000;-0.0475;0.1501;-0.8545;0.869
4.251000;-0.0692;0.1295;-0.5231;0.543
4.258000;-0.1448;0.1010;-0.3516;0.393
4.270000;-0.1247;0.1800;-0.4254;0.478
4.297000;-0.0676;0.3119;-0.3106;0.445
4.300000;-0.0777;0.3936;-0.3138;0.509
4.301000;-0.0904;0.5275;-0.7031;0.884
4.309000;-0.1622;0.7178;-1.0332;1.269
4.319000;-0.1272;0.8858;-1.2413;1.530
4.329000;-0.0016;1.1153;-1.2318;1.662
4.338000;-0.0477;1.2824;-0.9901;1.621
4.353000;-0.1488;1.2915;-0.8132;1.533
4.358000;-0.1407;1.2595;-0.8683;1.536
4.378000;-0.1348;1.3374;-0.8264;1.578
4.380000;-0.1636;1.4130;-0.7711;1.618
4.389000;-0.2531;1.3522;-0.5656;1.487
4.398000;-0.2599;1.2556;0.0308;1.283
4.409000;-0.2273;1.1938;0.8922;1.508
4.419000;-0.4250;1.0435;1.8241;2.144
4.432000;-0.7079;0.8552;2.4347;2.676
4.438000;-0.9493;0.6468;2.6519;2.890
4.449000;-0.9808;0.5163;2.3833;2.628
4.458000;-0.9306;0.4803;2.0211;2.276
4.470000;-0.8988;0.6134;1.7294;2.043
4.479000;-0.9201;0.9390;1.6873;2.139
4.500000;-0.9724;1.3151;1.9538;2.548
4.504000;-0.9070;1.3323;2.2673;2.782
4.508000;-0.7396;1.1574;2.9375;3.243
4.518000;-0.6712;0.6934;3.7596;3.882
4.528000;-0.6854;0.0227;4.6075;4.658
4.538000;-0.8466;-0.7379;5.2043;5.324
4.551000;-0.8758;-1.3125;5.4128;5.638
4.558000;-0.7402;-1.5737;4.9582;5.254
4.572000;-0.6505;-1.5140;3.7679;4.112
4.581000;-0.5040;-1.1695;2.2984;2.628
4.588000;-0.3649;-0.7471;0.8659;1.200
4.633000;-0.3341;-0.3017;-0.4154;0.613
4.634000;-0.2611;0.0119;-1.2821;1.308
4.635000;-0.1737;0.1316;-1.7837;1.797
4.638000;-0.0309;-0.0714;-1.8925;1.894
4.649000;-0.0214;-0.3437;-1.4767;1.516
4.658000;-0.1006;-0.7418;-1.1235;1.350
4.668000;-0.1842;-1.1309;-1.0274;1.539
4.678000;-0.2603;-1.3538;-1.0307;1.721
4.687000;-0.2688;-1.4172;-1.0758;1.800
4.697000;-0.1320;-1.4049;-1.2523;1.887
4.707000;0.1021;-1.2680;-1.4824;1.953
4.718000;0.2508;-1.0482;-1.6933;2.007
4.728000;0.2557;-0.8580;-1.8881;2.090
4.737000;0.1933;-0.7842;-2.0137;2.170
4.754000;0.1289;-0.7709;-1.9867;2.135
4.778000;-0.1033;-0.7007;-2.1945;2.306
4.780000;-0.1052;-0.6645;-1.9587;2.071
4.788000;-0.1107;-0.6855;-1.4894;1.643
4.798000;-0.1102;-0.6486;-1.1528;1.327
4.808000;-0.0709;-0.5452;-1.0623;1.196
4.818000;-0.1411;-0.4915;-1.2567;1.357
4.830000;-0.3138;-0.3479;-1.4832;1.555
4.837000;-0.3046;-0.2097;-1.6978;1.738
4.848000;-0.2091;-0.0296;-1.6501;1.664
4.858000;-0.1347;0.0936;-1.4057;1.415
4.869000;-0.1610;0.1113;-1.1091;1.126
4.878000;-0.3508;0.0346;-0.8697;0.938
4.888000;-1.5278;0.5252;-0.4712;1.683
4.898000;0.0576;0.3071;-0.4252;0.528
4.908000;0.3479;0.0037;-0.3680;0.506
4.918000;0.1034;0.2154;0.1677;0.292
4.928000;-0.0830;0.4739;0.3568;0.599
4.938000;0.3004;0.6834;0.2999;0.805
4.952000;0.5155;0.7239;0.2033;0.912
4.958000;0.4289;0.7489;0.3046;0.915
4.980000;0.2723;0.6959;0.4761;0.886
4.982000;-0.0342;0.5182;0.3910;0.650
4.988000;-0.3010;0.4053;0.1719;0.533
4.998000;-0.3266;0.3458;-0.0356;0.477
5.008000;-0.6461;0.3613;-0.0894;0.746
5.018000;-0.7138;0.5537;0.0566;0.905
5.028000;-0.4017;0.6993;0.3673;0.886
5.038000;-0.3067;0.7458;0.9904;1.277
5.057000;-0.1758;0.7661;1.6688;1.845
5.059000;-0.1186;0.7595;2.0023;2.145
5.089000;-0.0430;0.7862;2.0364;2.183
5.091000;0.0945;0.8978;1.7745;1.991
5.094000;0.2074;1.0038;1.2312;1.602
5.104000;0.2991;1.0268;0.6765;1.265
5.108000;0.3777;0.9079;0.3751;1.052
5.119000;0.5874;0.7765;0.3382;1.031
5.128000;0.8003;0.6326;0.7481;1.265
5.138000;0.9359;0.4107;1.4537;1.777
5.151000;1.0346;0.1195;3.2130;3.378
5.158000;0.9948;-0.6312;3.9814;4.152
5.181000;0.7892;-0.9196;4.3899;4.554
5.183000;0.5172;-1.1771;4.3380;4.524
5.188000;0.1919;-1.4038;3.9861;4.230
5.198000;-0.0646;-1.5396;3.6598;3.971
5.208000;-0.1171;-1.6088;3.3648;3.731
5.218000;-0.1450;-1.5828;2.9751;3.373
5.228000;-0.1405;-1.4873;2.5167;2.927
5.238000;-0.0907;-1.3393;2.0772;2.473
5.251000;-0.0102;-1.2021;1.6683;2.056
5.258000;0.0945;-1.1275;1.2586;1.692
5.270000;0.3901;-1.0666;0.9682;1.492
5.278000;0.7172;-1.1849;0.3833;1.437
5.288000;-0.6877;-0.7671;0.5047;1.147
5.298000;-0.6074;-0.4257;0.2488;0.782
5.308000;0.0175;-0.6869;-0.7743;1.035
5.318000;0.1161;-0.7859;-1.1119;1.367
5.328000;0.0185;-0.4863;-1.1995;1.294
5.338000;0.0505;-0.2401;-1.4814;1.502
5.353000;0.1880;-0.1324;-1.9480;1.962
5.358000;0.1668;-0.0044;-2.3260;2.332
5.387000;0.0332;0.0766;-2.3048;2.306
5.389000;0.1368;0.1543;-2.0892;2.099
5.391000;0.3421;0.2667;-2.1651;2.208
5.398000;0.5119;0.4984;-2.3513;2.457
5.408000;0.5784;0.7449;-2.4780;2.651
5.419000;0.4945;0.8361;-2.5555;2.734
5.432000;0.3494;0.7954;-2.5501;2.694
5.438000;0.1282;0.6698;-2.3633;2.460
5.450000;-0.2200;0.4873;-2.0264;2.096
5.458000;-0.5193;0.2948;-1.9079;1.999
5.472000;-0.8860;-0.0104;-1.6958;1.913
5.478000;-0.8485;-0.0057;-1.6948;1.895
5.503000;-0.6275;0.3005;-1.2977;1.472
5.505000;-0.4299;0.5066;-1.1705;1.346
5.508000;-0.3419;0.6307;-1.0296;1.255
5.518000;-0.2782;0.7424;-0.9741;1.256
5.528000;-0.2591;0.8176;-1.0986;1.394
5.538000;-0.2000;0.9407;-1.2642;1.588
5.551000;-0.0981;1.1134;-1.4806;1.855
5.558000;-0.0226;1.2419;-1.7136;2.116
5.575000;-0.0205;1.3173;-1.7585;2.197
5.578000;0.0286;1.4175;-1.7791;2.275
5.588000;0.1496;1.5469;-1.9962;2.530
5.598000;0.2038;1.6085;-2.3353;2.843
5.608000;0.1357;1.6414;-2.7560;3.211
5.618000;-0.0866;1.7005;-2.9337;3.392
5.627000;-0.3786;1.5248;-2.5920;3.031
5.637000;-0.4838;1.3021;-1.4628;2.017
5.651000;-0.3783;1.0102;0.0451;1.080
5.658000;-0.3213;0.6058;0.9379;1.162
5.668000;-0.2749;0.3517;1.5379;1.601
5.677000;-0.0106;0.3927;1.7829;1.826
5.688000;0.2538;0.5275;1.4188;1.535
5.698000;0.4315;0.6878;1.1572;1.414
5.708000;0.6693;0.8282;1.3096;1.688
5.717000;0.8804;0.9613;1.3596;1.884
5.728000;0.6913;0.9555;1.6369;2.018
5.737000;0.2241;0.8922;2.2371;2.419
5.750000;-0.2236;0.7741;3.0142;3.120
5.758000;-0.4798;0.5300;3.7659;3.833
5.771000;-0.6300;0.1567;4.1330;4.184
5.777000;-0.6785;-0.1085;4.1390;4.196
5.788000;-0.6821;-0.1658;4.0242;4.085
5.798000;-0.7868;-0.2008;3.7415;3.829
5.807000;-0.8865;-0.3769;3.5269;3.656
5.818000;-0.7673;-1.2673;3.9396;4.209
5.828000;-0.8049;-1.7302;4.5258;4.912
5.837000;-0.9707;-2.1744;4.8830;5.433
5.851000;-1.1034;-2.5184;4.7739;5.509
5.858000;-1.1232;-2.6531;4.1450;5.048
5.871000;-0.9065;-2.4979;3.1996;4.159
5.877000;-0.6465;-2.1538;2.1785;3.131
5.888000;-0.5037;-1.7909;1.1491;2.187
5.899000;-0.2749;-1.3816;0.0895;1.412
5.908000;0.0792;-0.8509;-0.8884;1.233
5.918000;0.3124;-0.4799;-1.6269;1.725
5.928000;0.4541;-0.3500;-2.0203;2.100
5.938000;0.5236;-0.4042;-2.0788;2.181
5.953000;0.4944;-0.5606;-1.9619;2.099
5.958000;0.3765;-0.8273;-1.6093;1.848
5.984000;0.2612;-1.1121;-1.2151;1.668
5.985000;0.2470;-1.3114;-0.8172;1.565
5.988000;0.2698;-1.4500;-0.4790;1.551
5.999000;0.3029;-1.4534;-0.5897;1.597
6.008000;0.3429;-1.2986;-1.1475;1.767
6.018000;0.4369;-1.0282;-1.8755;2.183
6.028000;0.6277;-0.6728;-2.4387;2.607
6.038000;0.6914;-0.3287;-2.7245;2.830
6.056000;0.6126;-0.0351;-2.8733;2.938
6.059000;0.5320;0.1235;-2.9885;3.038
6.085000;0.4279;0.1280;-2.8727;2.907
6.087000;0.1335;-0.0186;-2.6126;2.616
6.089000;-0.2137;-0.2710;-2.5420;2.565
6.099000;-0.4535;-0.4881;-2.2464;2.343
6.108000;-0.5244;-0.6047;-1.7421;1.917
6.118000;-0.6168;-0.6471;-1.5527;1.792
6.127000;-0.6334;-0.5173;-1.6038;1.800
6.138000;-0.3721;-0.2043;-1.6781;1.731
6.155000;-0.0491;0.2420;-1.1599;1.186
6.159000;0.0092;0.3527;-1.0226;1.082
6.179000;0.0522;0.4279;-0.6015;0.740
6.181000;0.0394;0.4328;-0.1603;0.463
6.188000;0.0663;0.4971;0.1167;0.515
6.199000;0.1733;0.6807;0.1493;0.718
6.208000;0.5387;0.9958;0.0558;1.133
6.218000;0.7949;1.2612;0.2467;1.511
6.228000;0.9095;1.3946;0.3990;1.712
6.238000;0.9723;1.4726;0.2964;1.789
6.252000;1.0086;1.5215;0.2988;1.850
6.257000;1.0587;1.4553;0.7741;1.959
6.272000;0.9541;1.2992;1.2038;2.012
6.278000;0.7760;1.1473;1.4254;1.987
6.288000;0.5848;1.0151;1.4639;1.875
6.299000;0.2814;0.8556;1.5865;1.824
6.308000;0.0888;0.7738;1.4129;1.613
6.318000;0.0887;0.8744;0.9353;1.283
6.328000;0.1042;1.0313;0.5031;1.152
6.339000;0.2115;1.1587;0.3575;1.231
6.356000;0.3493;1.2479;0.4000;1.356
6.360000;0.3570;1.2841;0.8277;1.569
6.390000;0.3548;1.1863;1.4578;1.913
6.392000;0.3564;0.9891;2.0327;2.288
6.393000;0.2146;0.5376;2.3066;2.378
6.399000;0.1520;0.0865;2.2593;2.266
6.408000;0.1279;-0.2535;2.0101;2.030
6.418000;0.1807;-0.5228;1.8200;1.902
6.428000;0.2451;-0.8065;1.6161;1.823
6.438000;0.1463;-1.0370;1.5168;1.843
6.453000;0.1773;-1.1733;1.7040;2.076
6.458000;0.3744;-1.2360;2.1084;2.473
6.486000;0.4967;-1.2502;2.3359;2.696
6.489000;0.4293;-1.2261;1.5833;2.048
6.490000;0.4401;-1.1815;1.0680;1.652
6.501000;0.5400;-1.1409;0.7101;1.448
6.508000;0.6190;-1.1104;0.5225;1.374
6.518000;0.7141;-1.1150;0.4851;1.410
6.528000;0.7567;-1.2192;0.5868;1.550
6.538000;0.6594;-1.4251;0.7830;1.755
6.554000;0.4943;-1.6028;0.9265;1.916
6.558000;0.4163;-1.6716;0.8613;1.926
6.582000;0.3936;-1.6360;0.6467;1.803
6.584000;0.4080;-1.5284;0.3463;1.619
6.588000;0.4647;-1.3130;-0.0245;1.393
6.598000;0.4568;-1.1154;-0.3622;1.259
6.609000;0.3565;-0.9959;-0.7292;1.285
6.619000;0.3084;-0.8562;-1.2069;1.512
6.628000;0.2437;-0.6660;-1.4845;1.645
6.638000;0.2349;-0.4493;-1.6947;1.769
6.655000;0.3455;-0.2155;-2.0899;2.129
6.658000;0.3363;0.0236;-2.1325;2.159
6.682000;0.3182;0.1986;-1.9421;1.978
6.684000;0.3408;0.3361;-2.0865;2.141
6.688000;0.3332;0.4967;-2.2350;2.314
6.700000;0.3317;0.6688;-2.3918;2.506
6.708000;0.3771;0.9106;-2.5539;2.737
6.718000;0.3134;1.1108;-2.6403;2.882
6.728000;0.1366;1.2264;-2.6994;2.968
6.738000;-0.0595;1.2318;-2.6120;2.888
6.753000;-0.1800;1.1563;-2.4073;2.677
6.758000;-0.3048;1.0723;-2.0868;2.366
6.779000;-0.3343;0.9958;-1.7950;2.080
6.781000;-0.3019;0.9732;-1.4744;1.792
6.788000;-0.2931;1.0277;-1.0757;1.516
6.798000;-0.3364;1.0471;-0.5951;1.251
6.808000;-0.4272;1.0174;-0.3677;1.163
6.818000;-0.3077;1.2828;-0.3723;1.371
6.828000;-0.2134;1.4772;-0.1811;1.503
6.838000;-0.1851;1.5878;-0.1393;1.605
6.853000;-0.3264;1.5912;-0.0460;1.625
6.858000;-0.5235;1.5003;0.2113;1.603
6.875000;-0.6375;1.4222;0.3844;1.605
6.878000;-0.6105;1.4187;0.6389;1.671
6.888000;-0.5411;1.4406;1.0754;1.877
6.898000;-0.5083;1.3954;1.4271;2.060
6.908000;-0.4655;1.3256;1.5039;2.058
6.918000;-0.5070;1.2909;1.5442;2.076
6.928000;-0.7139;1.1706;1.6696;2.160
6.938000;-0.8203;1.0292;1.6930;2.144
6.948000;-0.8112;1.0011;1.6120;2.064
6.959000;-0.7960;1.0191;1.7896;2.208
6.990000;-0.7787;0.9826;2.1717;2.508
6.992000;-0.7912;0.8372;2.6885;2.925
6.994000;-0.7074;0.6347;3.1135;3.255
7.001000;-0.2828;0.5215;3.0920;3.148
7.008000;0.0876;0.4783;2.3900;2.439
7.018000;0.0801;0.5187;1.6663;1.747
7.028000;-0.1721;0.5597;1.1863;1.323
7.039000;-0.6760;0.3638;1.0258;1.281
7.056000;-1.1781;-0.1348;1.3294;1.781
7.059000;-1.6781;-0.7997;2.1666;2.855
7.087000;-2.0815;-1.4572;3.1509;4.048
7.090000;-2.2854;-1.9354;3.7848;4.826
7.092000;-2.2346;-2.2159;3.9953;5.086
7.098000;-2.0269;-2.2112;3.7432;4.797
7.108000;-1.6550;-1.9835;3.2255;4.132
7.118000;-1.2982;-1.6523;2.5119;3.275
7.128000;-1.0058;-1.3109;1.7030;2.373
7.138000;-0.7020;-0.9844;0.4276;1.283
7.157000;-0.1714;-0.5970;0.2076;0.655
7.160000;-0.0493;-0.6258;0.0176;0.628
7.193000;-0.0171;-0.7257;-0.2305;0.762
7.195000;0.0255;-0.8217;-0.5909;1.012
7.197000;0.0473;-0.9215;-1.0130;1.370
7.199000;0.1622;-0.9537;-1.3774;1.683
7.208000;0.2862;-0.9937;-1.7876;2.065
7.218000;0.4875;-0.9364;-2.3436;2.570
7.228000;0.6666;-0.7831;-2.9435;3.118
7.238000;0.8952;-0.5174;-3.4125;3.566
7.248000;0.9556;-0.3311;-3.4339;3.580
7.258000;0.9019;-0.2942;-3.2040;3.341
7.278000;0.8493;-0.2980;-3.0332;3.164
7.280000;0.7876;-0.2984;-2.6999;2.828
7.288000;0.7879;-0.3079;-2.2824;2.434
7.298000;0.8804;-0.2668;-1.8852;2.098
7.308000;0.9052;-0.1976;-1.5232;1.783
7.318000;0.7941;-0.1477;-1.1322;1.391
7.328000;0.7209;-0.1510;-0.8906;1.156
7.338000;0.6064;-0.2167;-0.7765;1.009
7.348000;0.5147;-0.2386;-0.6042;0.829
7.359000;0.4407;-0.1555;-0.4419;0.643
7.394000;0.4155;-0.0258;-0.3630;0.552
7.396000;0.3943;0.1212;-0.4892;0.640
7.397000;0.3390;0.2637;-0.5910;0.731
7.398000;0.2395;0.3080;-0.5406;0.667
7.408000;0.1072;0.2661;-0.5381;0.610
7.418000;0.0269;0.2732;-0.5189;0.587
7.428000;-0.0023;0.2487;-0.2589;0.359
7.438000;0.0274;0.1946;0.0954;0.218
7.448000;0.1069;0.2419;0.3448;0.435
7.458000;0.2912;0.3783;0.4530;0.658
7.493000;0.3725;0.5963;-0.0933;0.709
7.495000;0.3616;0.6615;-0.2658;0.799
7.496000;0.4085;0.6725;-0.1554;0.802
7.498000;0.3950;0.6736;-0.1247;0.791
7.508000;0.3933;0.7024;-0.1423;0.817
7.518000;0.3107;0.7322;-0.1870;0.817
7.528000;0.1411;0.6891;-0.4861;0.855
7.538000;0.0384;0.6811;-0.8043;1.055
7.548000;-0.0220;0.7646;-0.7583;1.077
7.558000;-0.0933;0.8029;-0.5326;0.968
7.580000;-0.1219;0.7767;-0.0372;0.787
7.582000;-0.1428;0.6829;0.9423;1.173
7.590000;-0.2014;0.4565;1.7846;1.853
7.598000;-0.2740;0.1506;2.2685;2.290
7.608000;-0.0601;-0.0437;2.4436;2.445
7.618000;0.3100;-0.0983;2.3052;2.328
7.628000;0.5426;-0.1610;2.2872;2.356
7.638000;0.6368;-0.3225;2.6418;2.737
7.648000;0.7278;-0.5777;3.4044;3.529
7.658000;0.7613;-0.8623;4.2244;4.378
7.673000;0.6279;-1.1361;4.6901;4.866
7.677000;0.4044;-1.3149;4.5696;4.772
7.706000;0.3026;-1.2030;3.7639;3.963
7.708000;0.4424;-0.8496;2.6817;2.848
7.709000;0.7905;-0.4680;1.8764;2.089
7.718000;1.1928;-0.1154;1.3557;1.809
7.728000;1.3398;0.1706;1.0683;1.722
7.739000;1.2465;0.1611;0.8949;1.543
7.748000;1.0877;-0.1230;0.8464;1.384
7.758000;0.8954;-0.4759;0.8508;1.324
7.772000;0.6133;-0.8370;0.8562;1.345
7.777000;0.3345;-1.0806;0.8346;1.406
7.800000;0.2042;-1.1454;0.6852;1.350
7.802000;0.0999;-1.0911;0.3419;1.148
7.808000;-0.3252;-1.1243;-0.3065;1.210
7.819000;-0.4956;-1.1550;-0.5937;1.390
7.828000;-0.5969;-1.1014;-0.9898;1.597
7.838000;-0.5794;-0.9634;-1.4739;1.854
7.848000;-0.4394;-0.7413;-2.0815;2.253
7.858000;-0.2823;-0.4630;-2.6528;2.708
7.873000;-0.0859;-0.1368;-3.0938;3.098
7.877000;0.0582;0.1172;-3.4165;3.419
7.896000;0.1305;0.3384;-3.5733;3.592
7.898000;0.0626;0.4664;-3.5189;3.550
7.908000;-0.0508;0.4663;-3.2158;3.250
7.919000;-0.0959;0.5013;-2.9084;2.953
7.928000;-0.1513;0.5147;-2.7154;2.768
7.938000;-0.0237;0.5954;-2.5428;2.612
7.948000;0.0775;0.7512;-2.4679;2.581
7.958000;0.1480;0.8494;-2.5404;2.683
7.976000;0.1965;0.9203;-2.5256;2.695
7.979000;0.2442;1.0107;-2.2350;2.465
8.017000;0.2318;1.0105;-1.6023;1.908
8.019000;0.2363;0.8905;-0.8101;1.227
8.020000;0.2378;0.7632;-0.0872;0.804
8.021000;0.2799;0.7354;0.2390;0.822
8.028000;0.2718;0.8355;0.1247;0.887
8.038000;0.1348;1.0050;-0.1120;1.020
8.048000;-0.0316;1.1218;-0.1797;1.137
8.058000;-0.0898;1.1879;-0.0344;1.192
8.073000;-0.1716;1.2659;0.0073;1.278
8.078000;-0.2987;1.4039;-0.0272;1.436
8.098000;-0.4138;1.5145;0.0311;1.570
8.100000;-0.5459;1.5241;0.4107;1.670
8.108000;-0.7304;1.4541;1.0135;1.917
8.119000;-1.0609;1.2885;1.6427;2.342
8.128000;-1.3467;1.0593;2.3332;2.895
8.138000;-1.2496;0.8999;3.4367;3.766
8.148000;-0.0531;1.1733;3.7128;3.894
8.158000;0.4199;1.3655;3.9196;4.172
8.174000;0.6793;1.5121;3.6544;4.013
8.178000;0.6551;1.6357;2.8407;3.343
8.200000;0.3972;1.6607;1.9370;2.582
8.202000;0.0619;1.4964;1.3465;2.014
8.208000;-0.1587;1.2604;1.1910;1.741
8.219000;-0.2696;0.9851;1.2791;1.637
8.228000;-0.3134;0.6478;1.6231;1.775
8.238000;-0.4194;0.1883;2.1215;2.171
8.248000;-0.6531;-0.4286;2.4387;2.561
8.258000;-0.8932;-1.0386;2.5070;2.857
8.278000;-1.0539;-1.5656;2.5253;3.153
8.281000;-1.1312;-2.0465;2.5162;3.435
8.311000;-1.0647;-2.3777;2.3291;3.494
8.314000;-0.9955;-2.4838;1.9073;3.286
8.315000;-0.8830;-2.4103;1.2701;2.864
8.321000;-0.8120;-2.2671;0.4742;2.454
8.328000;-0.8173;-2.1051;-0.2994;2.278
8.338000;-0.8480;-1.9293;-0.8998;2.292
8.348000;-0.8540;-1.7856;-1.2000;2.315
8.358000;-0.7959;-1.6675;-1.3157;2.268
8.378000;-0.7734;-1.6853;-1.1289;2.171
8.381000;-0.6940;-1.8691;-0.7365;2.125
8.418000;-0.4782;-1.9998;-0.5154;2.120
8.420000;-0.1947;-1.9571;-0.4392;2.015
8.421000;0.1800;-1.7880;-0.4410;1.850
8.422000;0.5554;-1.5065;-0.7595;1.776
8.428000;0.9054;-1.1844;-1.3718;2.026
8.438000;1.1769;-0.8720;-1.9186;2.414
8.448000;1.3653;-0.6433;-2.0086;2.512
8.458000;1.5303;-0.4919;-1.8222;2.430
8.476000;1.5071;-0.4252;-0.9858;1.850
8.479000;1.0819;-0.5394;-0.8142;1.458
8.510000;0.6748;-0.4904;-1.0690;1.356
8.512000;0.2420;-0.4048;-1.6439;1.710
8.514000;0.0242;-0.2412;-2.1303;2.144
8.520000;0.0748;-0.0204;-2.4051;2.406
8.528000;0.1610;0.1724;-2.3408;2.353
8.537000;0.1937;0.2634;-1.8797;1.908
8.548000;0.0846;0.2012;-1.2313;1.251
8.558000;-0.0323;0.0331;-0.7169;0.718
8.577000;-0.1575;-0.1094;-0.3799;0.426
8.580000;-0.1875;-0.1667;-0.2202;0.334
8.615000;-0.1897;-0.1277;-0.2710;0.355
8.617000;-0.2306;-0.0676;-0.3196;0.400
8.618000;-0.2629;-0.0261;-0.4667;0.536
8.620000;-0.2945;0.0670;-0.6706;0.735
8.628000;-0.3700;0.1871;-0.9533;1.040
8.638000;-0.3857;0.4000;-1.3039;1.417
8.648000;-0.3308;0.6861;-1.6662;1.832
8.658000;-0.2163;0.9550;-1.7727;2.025
8.676000;-0.0357;1.1745;-1.6673;2.040
8.679000;0.1720;1.3651;-1.6551;2.152
8.723000;0.2587;1.5033;-1.7021;2.286
8.726000;0.2936;1.5151;-1.6073;2.228
8.727000;0.3316;1.5229;-1.5773;2.217
8.729000;0.2474;1.4713;-1.4718;2.096
8.731000;0.0415;1.2967;-1.3467;1.870
8.739000;-0.2063;1.0654;-1.2429;1.650
8.748000;-0.2934;0.9186;-0.9473;1.352
8.758000;-0.3748;0.7617;-0.6072;1.044
8.774000;-0.4284;0.6428;-0.3842;0.863
8.778000;-0.4616;0.5403;-0.1612;0.729
8.812000;-0.4618;0.5127;0.1592;0.708
8.815000;-0.3564;0.6474;0.8641;1.137
8.817000;0.3491;1.3332;1.1265;1.780
8.822000;0.6173;1.5836;1.2250;2.095
8.828000;0.7970;1.6528;1.4684;2.350
8.838000;0.7780;1.5024;1.7837;2.458
8.848000;0.5336;1.0988;2.4719;2.757
8.858000;0.3325;0.4937;3.5792;3.628
8.873000;0.0765;-0.3004;4.9895;4.999
8.878000;-0.3649;-1.1724;6.7285;6.840
8.907000;-0.8167;-2.0585;8.1433;8.439
8.909000;-1.0885;-2.7970;8.8996;9.392
8.911000;-0.9974;-3.1765;8.6086;9.230
8.920000;-0.7036;-3.0317;7.2879;7.925
8.928000;-0.3075;-2.3851;5.5020;6.005
8.938000;0.2659;-1.6276;3.7839;4.128
8.948000;0.7998;-1.0375;2.2122;2.571
8.958000;1.1002;-0.6933;1.0106;1.647
8.968000;1.2667;-0.5478;0.1412;1.387
8.978000;1.2741;-0.5445;-0.4375;1.453
9.018000;1.1206;-0.6118;-0.8495;1.534
9.020000;1.0558;-0.6766;-1.0923;1.663
9.021000;0.9977;-0.7763;-1.1344;1.698
9.023000;0.7999;-0.9602;-1.1043;1.668
9.028000;0.6586;-1.1491;-0.9484;1.629
9.038000;0.7270;-1.1848;-0.7036;1.558
9.048000;0.8351;-1.0811;-0.6872;1.529
9.058000;0.8712;-0.8988;-1.0389;1.627
9.068000;0.9407;-0.6399;-1.5447;1.919
9.079000;1.1273;-0.3241;-2.1037;2.409
9.114000;1.2432;-0.0270;-2.7265;2.997
9.116000;1.2923;0.2530;-3.3946;3.641
9.118000;1.1797;0.4399;-3.8848;4.084
9.120000;0.9889;0.5545;-4.2644;4.413
9.128000;0.7997;0.6217;-4.3651;4.481
9.138000;0.0336;0.4168;-3.6685;3.692
9.148000;-0.3267;0.1616;-3.4356;3.455
9.158000;-0.6721;-0.0287;-3.0434;3.117
9.168000;-0.8551;-0.1327;-2.5527;2.695
9.178000;-0.9152;-0.2446;-2.0725;2.279
9.209000;-0.9335;-0.2811;-1.8571;2.097
9.211000;-0.8733;-0.1448;-1.7623;1.972
9.213000;-0.6625;0.1217;-1.5640;1.703
9.218000;-0.4206;0.3434;-1.1877;1.306
9.228000;-0.1957;0.4937;-0.7880;0.950
9.238000;-0.1021;0.5987;-0.5643;0.829
9.248000;-0.0269;0.7801;-0.4856;0.919
9.258000;-0.0473;0.8955;-0.2001;0.919
9.269000;-0.1699;0.8961;0.1901;0.932
9.279000;-0.1843;0.9347;0.4904;1.072
9.303000;-0.2007;1.0919;0.7202;1.323
9.304000;-0.0935;1.2931;0.9564;1.611
9.308000;0.0647;1.4506;1.1152;1.831
9.318000;0.0121;1.5157;1.2396;1.958
9.328000;-0.0640;1.5369;1.3282;2.032
9.338000;-0.1159;1.5419;1.4177;2.098
9.348000;-0.1743;1.6015;1.6755;2.324
9.358000;-0.3424;1.5583;2.2195;2.733
9.368000;-0.5666;1.5317;2.8916;3.321
9.378000;-0.8232;1.5323;3.3436;3.769
9.408000;-1.0917;1.4630;3.3437;3.810
9.411000;-1.2207;1.3547;3.0232;3.531
9.412000;-1.2655;1.3805;2.5420;3.157
9.418000;-1.2824;1.5305;2.0539;2.865
9.428000;-1.2167;1.7540;1.8121;2.800
9.438000;-1.1640;1.8417;1.8911;2.885
9.448000;-1.1976;1.6636;2.1182;2.948
9.458000;-1.3665;1.2767;2.1708;2.865
9.468000;-1.4469;0.3753;2.3082;2.750
9.478000;-1.3657;-0.0269;2.1529;2.550
9.514000;-1.2455;-0.2863;1.7975;2.206
9.517000;-1.1245;-0.4136;1.3313;1.791
9.518000;-0.9763;-0.4442;0.7245;1.294
9.520000;-0.8258;-0.3436;0.1223;0.903
9.528000;-0.6770;-0.2506;-0.4219;0.836
9.538000;-0.5531;-0.2973;-0.7991;1.016
9.548000;-0.4034;-0.4471;-0.9241;1.103
9.558000;-0.3603;-0.7485;-0.4715;0.955
9.568000;-0.4140;-1.3115;0.3751;1.426
9.579000;-0.4427;-1.8914;0.9048;2.143
9.605000;-0.4256;-2.2681;1.0247;2.525
9.607000;-0.2473;-2.3966;0.8355;2.550
9.609000;0.0377;-2.2994;0.3257;2.323
9.618000;0.3442;-2.0467;-0.2333;2.088
9.628000;0.7146;-1.7495;-0.7629;2.038
9.638000;1.0546;-1.4636;-1.1107;2.118
9.648000;1.2162;-1.1842;-1.3780;2.186
9.658000;1.2518;-1.0382;-1.6821;2.340
9.668000;1.0831;-1.0300;-1.9789;2.480
9.678000;0.7962;-1.0245;-2.1640;2.523
9.718000;0.4055;-1.0280;-2.2475;2.504
9.722000;0.1092;-1.0176;-2.3548;2.568
9.723000;-0.0710;-0.9279;-2.4397;2.611
9.725000;-0.3531;-0.7625;-2.4322;2.573
9.728000;-0.5350;-0.6357;-2.5893;2.719
9.738000;-0.6448;-0.5115;-2.8349;2.952
9.748000;-0.7140;-0.3255;-2.9060;3.010
9.759000;-0.6974;-0.1199;-2.7734;2.862
9.768000;-0.6080;0.0793;-2.6384;2.709
9.778000;-0.6977;0.1978;-2.4369;2.543
9.814000;-0.7621;0.2003;-2.0407;2.188
9.816000;-0.4507;0.1674;-0.7320;0.876
9.819000;-0.2683;0.2417;-0.0581;0.366
9.822000;-0.0099;0.3600;0.6297;0.725
9.828000;0.1497;0.4120;1.2250;1.301
9.838000;0.3412;0.4998;1.4700;1.590
9.848000;0.5376;0.7153;1.3005;1.579
9.858000;0.6926;0.9995;0.8818;1.502
9.868000;0.7290;1.2031;0.6929;1.568
9.878000;0.7473;1.3009;0.8944;1.747
9.918000;0.6450;1.3397;1.3813;2.030
9.920000;0.4736;1.2712;2.0831;2.486
9.921000;0.2787;1.2021;2.7320;2.998
9.922000;0.1265;1.1705;2.8814;3.113
9.929000;0.1109;1.2172;2.4316;2.722
9.938000;0.3774;1.3429;1.7597;2.246
9.948000;0.8315;1.5040;1.2695;2.137
9.958000;1.1561;1.5226;1.4720;2.413
9.969000;1.2954;1.3315;2.1549;2.845
9.978000;1.1413;0.8234;2.9190;3.241
10.007000;0.8654;0.0846;3.8572;3.954
10.009000;0.5193;-0.7753;5.0255;5.111
10.010000;0.1700;-1.4842;5.9134;6.099
10.018000;-0.0244;-1.9262;5.9436;6.248
10.028000;-0.0895;-2.1188;5.0335;5.462
10.038000;0.0117;-1.9467;3.8139;4.282
10.047000;0.2113;-1.6123;2.5736;3.044
10.057000;0.4310;-1.2576;1.4936;2.000
10.068000;0.6281;-0.9271;0.5853;1.264
10.078000;0.7666;-0.6646;-0.0642;1.017
10.114000;0.7433;-0.6186;-0.5719;1.123
10.116000;0.6562;-0.7693;-0.9653;1.398
10.117000;0.5537;-0.9188;-1.1728;1.589
10.118000;0.4348;-1.0753;-1.1620;1.642
10.128000;0.3513;-1.2181;-0.8383;1.520
10.139000;0.2563;-1.3795;-0.8735;1.653
10.148000;0.2428;-1.3495;-0.7863;1.581
10.158000;0.3525;-1.2683;-0.8008;1.541
10.168000;0.5245;-1.1019;-1.1761;1.695
10.178000;0.6110;-0.8724;-1.7871;2.080
10.207000;0.6405;-0.6342;-2.4056;2.569
10.209000;0.7675;-0.3551;-2.9649;3.083
10.210000;0.8575;-0.0935;-3.3252;3.435
10.218000;0.8303;0.0973;-3.5322;3.630
10.228000;0.8074;0.2671;-3.7772;3.872
10.239000;0.6506;0.4024;-3.8534;3.929
10.248000;0.3123;0.4521;-3.7724;3.812
10.258000;0.0038;0.4635;-3.8066;3.835
10.268000;-0.1838;0.5352;-3.8923;3.933
10.278000;-0.2023;0.6983;-3.9856;4.051
10.314000;-0.1453;0.9162;-4.0844;4.188
10.316000;-0.0683;1.1883;-4.0309;4.203
10.318000;0.0220;1.4231;-3.6925;3.957
10.320000;0.0681;1.5246;-3.1488;3.499
10.328000;0.1104;1.5562;-2.4639;2.916
10.339000;0.0333;1.5257;-1.5417;2.169
10.348000;-0.0712;1.4287;-0.8029;1.640
10.359000;-0.2028;1.2949;-0.3371;1.353
10.368000;-0.4226;1.1651;-0.0618;1.241
10.379000;-0.4887;1.1744;-0.0824;1.275
10.407000;-0.4419;1.2624;-0.0984;1.341
10.408000;-0.3725;1.4308;0.0688;1.480
10.410000;-0.3387;1.6060;0.3872;1.686
10.418000;-0.2717;1.7580;0.7315;1.923
10.428000;-0.2158;1.9023;0.9707;2.147
10.439000;-0.1826;1.9468;1.1479;2.267
10.448000;-0.0877;1.8764;1.3486;2.312
10.459000;0.0894;1.8136;2.8346;3.366
10.468000;0.1605;1.5500;3.6048;3.927
10.479000;0.0219;1.3010;4.1045;4.306
10.520000;-0.0711;1.2230;4.0355;4.217
10.522000;-0.1162;1.2702;3.4563;3.684
10.524000;-0.0937;1.3514;2.7970;3.108
10.525000;-0.0570;1.3277;2.4402;2.779
10.528000;-0.0059;1.2168;2.4782;2.761
10.540000;0.1607;1.0251;2.6767;2.871
10.548000;0.2066;0.6948;2.9689;3.056
10.558000;0.0422;0.1809;3.4124;3.417
10.568000;-0.0902;-0.3793;3.8263;3.846
10.579000;-0.1135;-0.8550;4.0107;4.102
10.622000;-0.0988;-1.1542;3.8551;4.025
10.625000;-0.0546;-1.3152;3.2876;3.541
10.626000;0.0639;-1.2955;2.6342;2.936
10.627000;0.3327;-1.1060;2.0543;2.357
10.629000;0.4152;-1.0057;1.4733;1.831
10.640000;0.3094;-1.0481;1.0169;1.493
10.648000;0.2344;-1.1143;0.5682;1.273
10.658000;0.0706;-1.2115;-0.0299;1.214
10.668000;-0.1074;-1.3050;-0.7819;1.525
10.679000;-0.2299;-1.3808;-1.3965;1.977
10.717000;-0.1851;-1.4152;-1.7595;2.266
10.718000;-0.0759;-1.3883;-1.9829;2.422
10.720000;0.0410;-1.4134;-2.1331;2.559
10.722000;0.0659;-1.5379;-2.0094;2.531
10.729000;0.0969;-1.7889;-1.5375;2.361
10.740000;0.2002;-1.9603;-1.2819;2.351
10.748000;0.2700;-1.9219;-1.2706;2.320
10.758000;0.3130;-1.7280;-1.4982;2.308
10.768000;0.2826;-1.5269;-1.9299;2.477
10.778000;0.2329;-1.3001;-2.4585;2.791
10.812000;0.3038;-0.9650;-2.8889;3.061
10.814000;0.2086;-0.4153;-3.1392;3.173
10.815000;-0.0093;-0.3545;-2.6147;2.639
10.818000;-0.1940;-0.4443;-1.7943;1.859
10.828000;-0.3910;-0.5843;-1.2890;1.468
10.840000;-0.6139;-0.7075;-0.8792;1.285
10.848000;-0.7580;-0.7307;-0.5163;1.173
10.858000;-0.8871;-0.7019;-0.3904;1.197
10.868000;-0.9621;-0.6248;-0.4160;1.220
10.880000;-1.0427;-0.4082;-0.5347;1.241
10.918000;-1.1470;-0.0763;-0.9297;1.478
10.919000;-1.1193;0.2792;-1.3829;1.801
10.921000;-1.0752;0.5640;-1.6487;2.047
10.922000;-1.0150;0.7925;-1.5868;2.044
10.928000;-1.0164;0.8022;-1.1897;1.758
10.938000;-0.9808;0.6642;-0.5661;1.313
10.949000;-0.9174;0.5443;0.0894;1.070
10.958000;-0.8654;0.4488;0.5590;1.124
10.968000;-0.7518;0.3300;1.0048;1.298
10.979000;-0.5534;0.2852;1.3654;1.501
11.009000;-0.3376;0.4251;1.2108;1.327
11.011000;-0.1569;0.6218;0.7417;0.980
11.012000;0.0453;0.8226;0.2079;0.850
11.018000;0.3336;1.0630;-0.1035;1.119
11.028000;0.5991;1.2458;0.1356;1.389
11.040000;0.6500;1.2331;0.8883;1.653
11.049000;0.5921;0.9736;1.9052;2.220
11.059000;0.5489;0.6364;2.8155;2.938
11.068000;0.4381;0.3178;3.6194;3.660
11.080000;0.4742;0.0447;4.1786;4.206
11.089000;0.6298;-0.0388;4.6303;4.673
11.128000;0.9117;0.0224;4.9637;5.047
11.130000;1.2064;0.0065;4.9803;5.124
11.132000;1.4286;-0.1468;4.7713;4.983
11.133000;1.4377;-0.8011;4.7218;5.000
11.138000;1.4054;-1.2849;4.8979;5.255
11.149000;1.5422;-1.7744;5.2006;5.707
11.158000;1.7963;-2.1644;5.6419;6.304
11.168000;1.9897;-2.3646;5.9495;6.704
11.178000;2.1673;-2.2131;5.5267;6.336
11.208000;2.2586;-1.6600;4.1336;4.994
11.211000;2.0562;-1.0688;2.4275;3.356
11.212000;1.7284;-0.6239;0.9294;2.059
11.218000;1.3261;-0.3308;-0.3922;1.422
11.228000;0.7919;-0.1329;-1.2231;1.463
11.238000;0.3163;-0.0995;-1.5628;1.598
11.248000;-0.0233;-0.1650;-1.7881;1.796
11.258000;-0.4364;-0.3429;-1.7939;1.878
11.268000;-0.8587;-0.6385;-1.7985;2.093
11.278000;-1.1462;-0.8523;-1.8389;2.328
11.312000;-1.1582;-0.8673;-1.8205;2.325
11.314000;-0.8779;-0.7028;-1.9731;2.271
11.316000;-0.4064;-0.3634;-2.3694;2.431
11.318000;-0.0097;0.0229;-2.8417;2.842
11.328000;0.2667;0.2820;-3.4225;3.444
11.338000;0.3494;0.3758;-3.8504;3.884
11.348000;0.3444;0.3387;-4.1161;4.144
11.358000;0.2202;0.2326;-4.0100;4.023
11.368000;0.1477;0.0723;-3.7928;3.796
11.378000;-0.0657;-0.1378;-3.3802;3.384
11.408000;-0.3831;-0.4053;-2.9410;2.993
11.410000;-0.6830;-0.6720;-2.7453;2.908
11.411000;-0.9468;-0.8873;-2.6650;2.964
11.417000;-1.1634;-0.9665;-2.7330;3.124
11.428000;-1.2882;-0.9031;-2.9357;3.331
11.439000;-1.2609;-0.6270;-3.2402;3.533
11.448000;-1.1599;-0.2269;-3.4371;3.635
11.458000;-0.9268;0.7977;-3.3217;3.540
11.468000;-0.6872;1.1591;-3.1310;3.409
11.482000;-0.5315;1.3439;-2.8265;3.175
11.526000;-0.6301;1.3538;-2.3064;2.748
11.528000;-0.9664;1.0777;-1.3938;2.009
11.529000;-1.4490;0.5380;-0.2142;1.560
11.530000;-1.6211;0.0162;0.9145;1.861
11.531000;-1.2583;-0.1054;1.4213;1.901
11.538000;-0.8317;0.2489;1.1934;1.476
11.548000;-0.5923;0.7869;0.8022;1.270
11.558000;-0.5040;1.1501;0.5989;1.391
11.567000;-0.6384;1.3011;0.3368;1.488
11.579000;-0.9135;1.2316;0.7066;1.688
11.588000;-1.2831;0.8456;1.6828;2.279
11.615000;-1.5515;0.3408;2.4849;2.949
11.617000;-1.8592;0.1222;3.1739;3.680
11.618000;-2.0348;0.0965;3.9864;4.477
11.628000;-1.9798;0.0847;4.8383;5.228
11.638000;-1.7647;0.1081;5.5167;5.793
11.648000;-1.5639;0.1811;5.8791;6.086
11.658000;-1.4002;0.1142;6.0828;6.243
11.668000;-1.1224;-0.0368;5.9293;6.035
11.683000;-0.7165;-0.1114;5.2779;5.327
11.688000;-0.2928;-0.0247;4.3654;4.375
11.727000;0.0249;0.0422;3.2379;3.238
11.730000;0.2964;0.1191;2.1479;2.172
11.731000;0.5919;0.2649;1.2207;1.382
11.732000;0.8638;0.3618;0.4432;1.036
11.738000;1.0453;0.3776;-0.3695;1.171
11.748000;1.0211;0.2199;-1.0031;1.448
11.758000;0.8009;-0.1144;-1.5246;1.726
11.768000;0.6015;-0.5332;-1.8522;2.019
11.779000;0.5507;-0.8700;-1.9423;2.198
11.788000;0.5745;-1.3912;-1.4185;2.068
11.822000;0.7280;-1.5933;-0.6162;1.857
11.824000;0.8122;-1.8504;0.1692;2.028
11.825000;0.7853;-2.0550;0.3098;2.222
11.828000;0.7308;-2.0855;-0.0748;2.211
11.837000;0.8181;-1.8928;-0.8316;2.223
11.848000;0.8807;-1.5921;-1.8548;2.598
11.859000;0.9903;-1.1971;-3.0500;3.423
11.868000;1.0573;-0.7253;-3.8369;4.045
11.878000;0.8707;-0.3890;-4.2078;4.314
11.888000;0.4732;-0.3121;-4.1687;4.207
11.898000;0.0125;-0.4226;-3.5431;3.568
11.938000;-0.5134;-0.6708;-2.5261;2.664
11.942000;-0.8565;-0.7921;-1.8146;2.157
11.944000;-1.0383;-0.7419;-1.3993;1.894
11.946000;-0.9868;-0.5377;-1.1967;1.642
11.948000;-0.7541;-0.2790;-1.1331;1.389
11.960000;-0.3595;0.0265;-1.2806;1.330
11.968000;0.0111;0.4132;-1.4236;1.482
11.978000;0.3014;0.7361;-1.3021;1.526
11.988000;0.4808;0.9708;-1.1774;1.600
11.999000;0.4361;1.0424;-0.7867;1.377
12.031000;0.3959;0.9933;-0.1202;1.076
12.033000;0.2824;0.7949;0.9128;1.243
12.034000;0.1777;0.5720;1.7825;1.880
12.038000;0.1469;0.5039;2.3957;2.452
12.048000;0.0790;0.4843;2.5143;2.562
12.059000;-0.1475;0.4317;2.4148;2.458
12.068000;-0.4097;0.4492;2.1800;2.263
12.083000;-0.5969;0.5784;1.6416;1.840
12.088000;-0.7505;0.7183;1.0387;1.469
12.122000;-0.7479;0.9444;0.5981;1.345
12.123000;-0.5237;1.3280;0.6341;1.562
12.125000;-0.4983;1.6343;1.2666;2.127
12.128000;-0.8192;1.2007;1.8809;2.377
12.138000;-1.0167;0.6123;2.4440;2.717
12.148000;-1.0190;0.0040;2.9054;3.079
12.158000;-0.9477;-0.3543;3.2716;3.424
12.168000;-0.5525;-0.2191;3.1720;3.227
12.178000;0.0529;0.3352;2.8966;2.916
12.188000;0.4951;0.8162;2.6385;2.806
12.199000;0.7927;0.9409;2.2291;2.546
12.249000;0.9377;0.8166;1.8484;2.228
12.250000;0.9116;0.4166;1.5333;1.832
12.251000;0.7906;-0.1031;1.5433;1.737
12.253000;0.7159;-0.6275;1.9203;2.143
12.254000;0.7566;-1.0922;2.4800;2.813
12.259000;0.8330;-1.4515;2.9457;3.388
12.268000;0.8308;-1.6707;3.0142;3.545
12.278000;0.7979;-1.7498;2.5580;3.200
12.288000;0.7592;-1.6886;1.9097;2.660
12.298000;0.8519;-1.4866;1.2861;2.142
12.335000;0.9821;-1.2717;0.8362;1.811
12.337000;1.0445;-1.1256;0.5838;1.643
12.338000;1.0462;-1.0707;0.3283;1.533
12.341000;0.9127;-1.1306;0.0855;1.455
12.349000;0.7364;-1.1468;-0.3724;1.413
12.359000;0.5565;-1.0862;-0.9824;1.567
12.368000;0.4741;-1.0248;-1.6625;2.010
12.377000;0.5639;-0.9007;-2.3901;2.616
12.388000;0.5418;-0.6887;-3.0381;3.162
12.399000;0.4141;-0.5436;-3.6971;3.760
12.429000;0.2467;-0.5052;-4.3360;4.372
12.432000;0.0169;-0.4749;-4.6309;4.655
12.433000;-0.0424;-0.4403;-4.4324;4.454
12.438000;0.1262;-0.3910;-3.9957;4.017
12.448000;0.2819;-0.3386;-3.5027;3.530
12.459000;0.4519;-0.2871;-3.1425;3.188
12.468000;0.4977;-0.2471;-3.1008;3.150
12.478000;0.4686;-0.1983;-2.9183;2.962
12.488000;0.3895;-0.1333;-2.6221;2.654
12.499000;0.3240;-0.1284;-2.2293;2.256
12.545000;0.3056;-0.1104;-1.8388;1.867
12.548000;0.2510;-0.0798;-1.4681;1.492
12.549000;0.1995;-0.0019;-1.2452;1.261
12.550000;0.1109;0.0643;-1.0103;1.018
12.551000;0.1293;0.2315;-0.7132;0.761
12.559000;0.1784;0.5827;-0.5114;0.796
12.568000;0.1784;0.9889;-0.2551;1.037
12.578000;0.1248;1.3205;0.0225;1.327
12.588000;0.0205;1.6055;0.2023;1.618
12.599000;-0.3370;1.7475;0.5144;1.853
12.639000;-0.6881;1.8419;0.8615;2.147
12.641000;-1.0406;1.8758;1.3933;2.558
12.642000;-1.3049;1.9323;1.8002;2.946
12.643000;-1.5490;1.9234;2.3361;3.399
12.648000;-1.5558;1.8787;2.8557;3.756
12.659000;-1.2670;1.9171;3.4299;4.128
12.668000;-0.9490;1.9752;3.9760;4.540
12.678000;-0.8915;1.9001;4.2420;4.733
12.688000;-0.9585;1.6279;3.7435;4.193
12.698000;-1.1292;1.4764;2.7610;3.328
12.740000;-1.4017;1.4494;2.0229;2.856
12.741000;-1.5731;1.4389;1.3515;2.524
12.742000;-1.7630;1.4456;1.0472;2.509
12.744000;-1.9887;1.3393;1.1249;2.648
12.748000;-2.0289;1.1078;1.3870;2.696
12.759000;-1.8115;0.8709;1.4823;2.497
12.768000;-1.8556;0.5304;1.0121;2.179
12.778000;-1.8392;-0.0371;1.0118;2.099
12.788000;-2.0524;-0.8314;0.5344;2.278
12.798000;-1.6672;-0.5767;0.3730;1.803
12.846000;-1.1917;-0.1964;0.1675;1.219
12.848000;-0.8492;-0.0534;0.0874;0.855
12.850000;-0.5673;-0.1554;0.1855;0.617
12.851000;-0.4596;-0.3508;0.4099;0.709
12.852000;-0.4297;-0.5877;0.6818;0.997
12.860000;-0.3122;-0.8546;0.6801;1.136
12.868000;-0.2026;-1.1045;0.5530;1.252
12.878000;-0.0314;-1.2306;0.3813;1.289
12.888000;0.1348;-1.2365;0.2881;1.277
12.899000;0.2492;-1.3534;0.6584;1.526
12.945000;0.5542;-1.4056;0.6918;1.662
12.948000;0.8071;-1.2759;0.2713;1.534
12.949000;0.9314;-1.1462;-0.2027;1.491
12.950000;0.9656;-1.1025;-0.7423;1.643
12.960000;1.2475;-0.8600;-1.6130;2.213
12.969000;1.3877;-0.6167;-1.7101;2.287
12.978000;1.3086;-0.3892;-2.2670;2.646
12.988000;1.0787;-0.1757;-2.8771;3.078
13.000000;0.7871;0.0309;-3.4787;3.567
13.043000;0.6558;0.3306;-3.8701;3.939
13.045000;0.2555;0.4226;-3.7533;3.786
13.047000;0.0554;0.3902;-3.2884;3.312
13.049000;0.1384;0.3914;-2.6855;2.717
13.050000;0.2378;0.4117;-2.1320;2.184
13.060000;0.2081;0.3759;-1.4181;1.482
13.068000;0.2315;0.2136;-0.5256;0.613
13.078000;0.2816;0.1085;0.0152;0.302
13.088000;0.2465;0.0359;0.4935;0.553
13.100000;0.1421;-0.0992;1.1286;1.142
13.149000;0.1486;-0.1733;1.6879;1.703
13.150000;-0.0104;0.0419;1.1183;1.119
13.152000;-0.2051;0.1680;0.3384;0.430
13.152000;-0.4529;0.3069;-0.3641;0.657
13.153000;-0.6835;0.5361;-0.8776;1.235
13.161000;-0.8265;0.7407;-0.6969;1.311
13.168000;-0.9496;0.7554;0.1510;1.223
13.178000;-1.0659;0.4785;1.6408;2.014
13.188000;-1.2321;-0.1084;3.4337;3.650
13.198000;-1.3505;-0.8392;5.2225;5.459
13.208000;-1.1745;-1.4660;6.4656;6.733
13.242000;-0.6062;-1.7230;6.3403;6.598
13.245000;0.0808;-1.4323;4.5771;4.797
13.248000;0.8630;-0.7545;2.3322;2.599
13.249000;1.6016;-0.0538;0.5594;1.697
13.258000;2.2279;0.7009;-0.7065;2.440
13.268000;2.3103;1.2548;-1.2952;2.931
13.281000;1.6628;1.2390;-1.5459;2.586
13.288000;0.7715;0.6953;-1.2674;1.639
13.324000;0.1238;0.0619;-0.5115;0.530
13.325000;-0.3195;-0.5383;0.4976;0.800
13.327000;-0.5428;-1.1303;1.3945;1.875
13.328000;-0.6673;-1.6201;2.5290;3.077
13.338000;-0.4583;-1.8726;3.7317;4.200
13.348000;-0.0513;-1.9783;4.6047;5.012
13.361000;0.3154;-1.9946;4.5650;4.992
13.370000;0.5588;-1.8188;3.5600;4.037
13.379000;0.7601;-1.4337;2.1131;2.664
13.387000;1.0453;-0.9846;0.8322;1.660
13.399000;1.4245;-0.5717;0.0256;1.535
13.408000;1.5308;-0.4127;-0.4082;1.637
13.426000;1.2823;-0.5433;-0.6150;1.522
13.429000;0.9063;-0.8022;-0.6953;1.396
13.438000;0.3921;-1.1193;-0.9425;1.515
13.448000;-0.4174;-1.4647;-2.0669;2.567
13.458000;-0.5770;-1.3098;-2.6533;3.015
13.470000;-0.4844;-1.0772;-3.1963;3.408
13.484000;-0.1674;-0.6383;-3.6066;3.666
13.489000;0.3840;-0.0363;-4.2118;4.229
13.539000;0.6977;0.6219;-4.5567;4.652
13.542000;0.9577;1.1388;-4.6060;4.840
13.543000;1.0099;1.4036;-4.2889;4.624
13.545000;0.8561;1.3483;-3.6468;3.981
13.547000;0.7113;1.0876;-2.9237;3.199
13.548000;0.5034;0.8321;-2.0062;2.230
13.558000;0.2043;0.5241;-0.7726;0.956
13.568000;-0.0788;0.2261;0.1215;0.269
13.581000;-0.2610;0.1088;0.5927;0.657
13.588000;-0.2967;0.2073;0.6624;0.755
13.628000;-0.2842;0.5065;0.2749;0.643
13.630000;-0.2384;0.9001;-0.2788;0.972
13.632000;-0.2550;1.2611;-0.6105;1.424
13.632000;-0.3903;1.5350;-0.7117;1.736
13.638000;-0.7043;1.5608;-0.5335;1.794
13.649000;-1.0788;1.3673;-0.0934;1.744
13.659000;-1.3583;1.1795;0.2077;1.811
13.669000;-1.4495;1.2156;0.3491;1.924
13.682000;-1.4371;1.4393;0.4207;2.077
13.688000;-1.4481;1.6292;0.4943;2.235
13.737000;-1.3973;1.7662;0.5225;2.312
13.738000;-1.1575;1.9948;0.6059;2.385
13.740000;-0.8840;2.2212;0.8116;2.525
13.742000;-0.7406;2.2768;1.2700;2.710
13.743000;-0.6563;2.1622;2.0346;3.041
13.748000;-0.6938;1.8558;3.0475;3.635
13.758000;-0.6138;1.5368;3.8957;4.233
13.768000;-0.5507;1.3002;4.2289;4.458
13.782000;-0.5042;1.2039;3.0808;3.346
13.788000;-0.2269;1.3821;2.1601;2.574
13.833000;-0.1326;1.4552;1.0382;1.793
13.835000;-0.3919;1.2936;0.4782;1.434
13.836000;-0.7330;0.9577;0.3860;1.266
13.838000;-1.0387;0.4990;0.2626;1.182
13.839000;-1.2139;-0.0191;0.0845;1.217
13.848000;-1.2277;-0.4385;0.0372;1.304
13.858000;-1.0982;-0.6929;0.0099;1.299
13.868000;-0.9075;-0.7947;-0.1041;1.211
13.882000;-0.7559;-0.7857;-0.5034;1.201
13.888000;-0.6816;-0.6561;-1.1061;1.455
13.935000;-0.4476;-0.4089;-1.5844;1.696
13.938000;-0.0891;-0.1092;-1.8598;1.865
13.939000;0.1453;-0.0366;-1.6551;1.662
13.940000;0.1948;-0.3500;-0.8915;0.977
13.941000;0.1645;-0.8519;0.0196;0.868
13.948000;0.1121;-1.3649;1.0157;1.705
13.958000;0.1026;-1.7147;1.6521;2.383
13.968000;-0.0015;-2.0707;1.8657;2.787
13.983000;0.0406;-2.1520;1.7219;2.756
13.992000;0.3245;-1.9447;1.1781;2.297
14.020000;0.7569;-1.4991;0.3556;1.717
14.022000;1.1934;-0.9691;-0.3961;1.588
14.023000;1.3523;-0.6252;-0.9686;1.777
14.029000;1.3431;-0.5489;-1.4272;2.035
14.037000;1.3016;-0.5043;-1.7393;2.230
14.048000;1.1161;-0.4889;-1.9306;2.283
14.057000;0.8170;-0.6172;-1.9486;2.201
14.068000;0.4592;-0.9342;-1.4956;1.822
14.082000;0.2694;-1.1414;-1.1763;1.661
14.088000;0.2036;-1.0089;-1.4161;1.751
14.122000;0.1768;-0.7262;-2.0469;2.179
14.124000;0.1688;-0.4287;-2.6941;2.733
14.126000;0.3806;0.3579;-2.7003;2.750
14.132000;0.3252;0.3736;-2.0479;2.107
14.138000;0.1626;0.1755;-1.4887;1.508
14.148000;0.0029;0.0160;-1.0479;1.048
14.157000;-0.1388;-0.1267;-0.5664;0.597
14.168000;-0.2646;-0.3427;0.0254;0.434
14.186000;-0.2680;-0.5279;0.7070;0.922
14.188000;-0.1558;-0.5311;1.1771;1.301
14.232000;-0.0494;-0.3406;1.0435;1.099
14.233000;-0.0081;0.0014;0.3282;0.328
14.234000;-0.0729;0.3522;-0.4369;0.566
14.235000;-0.0963;0.6424;-0.9147;1.122
14.238000;-0.0261;0.9718;-0.9004;1.325
14.248000;0.1527;1.2172;-0.1825;1.240
14.257000;0.2088;1.0552;1.1283;1.559
14.268000;0.1115;0.5708;2.7370;2.798
14.281000;0.1875;0.1015;4.4325;4.438
14.288000;0.4919;-0.1773;5.2914;5.317
14.318000;0.8904;-0.1670;5.2551;5.333
14.321000;1.1250;0.0002;4.5402;4.678
14.322000;1.2929;0.3051;3.3562;3.610
14.332000;1.3547;0.6507;2.1604;2.632
14.338000;1.1520;0.6378;1.3805;1.908
14.352000;0.7770;0.2371;1.0362;1.317
14.357000;0.3896;-0.3051;0.8559;0.989
14.368000;0.0440;-0.8065;0.9444;1.243
14.385000;-0.2822;-1.3234;1.2698;1.856
14.388000;-0.4354;-1.8025;1.3555;2.297
14.426000;-0.4006;-1.9708;1.2288;2.357
14.428000;-0.1485;-1.7821;0.7357;1.934
14.429000;0.2356;-1.3806;-0.0628;1.402
14.430000;0.6329;-0.9000;-0.9410;1.448
14.438000;1.0397;-0.3010;-1.6396;1.965
14.448000;0.9750;-0.2501;-0.7551;1.258
14.457000;0.7510;-0.7432;0.2607;1.088
14.467000;0.4650;-1.0641;0.9023;1.471
14.482000;0.0308;-1.2645;1.5543;2.004
14.488000;-0.2018;-1.4140;1.9445;2.413
14.518000;-0.1788;-1.3764;1.6385;2.147
14.519000;-0.2745;-1.1177;1.1087;1.598
14.520000;-0.0114;-0.6936;-0.0715;0.697
14.529000;0.2658;-0.1093;-1.3599;1.390
14.538000;0.4859;0.5361;-2.4894;2.592
14.548000;0.5762;1.1367;-3.4544;3.682
14.558000;0.6633;1.5455;-4.0095;4.348
14.568000;0.5940;1.7562;-4.1903;4.582
14.582000;0.3775;1.7281;-3.9636;4.340
14.587000;0.1256;1.5005;-3.4983;3.809
14.620000;-0.1026;1.2022;-2.9492;3.187
14.622000;-0.3363;0.9425;-2.4374;2.635
14.623000;-0.5309;0.7434;-1.8409;2.055
14.629000;-0.6806;0.6265;-1.3762;1.658
14.637000;-0.7945;0.6529;-0.9912;1.428
14.648000;-0.8311;0.7849;-0.6678;1.324
14.657000;-0.8984;0.9431;-0.5810;1.426
14.668000;-0.8045;1.1236;-0.6799;1.540
14.682000;-0.6842;1.3579;-0.7445;1.693
14.687000;-0.6556;1.4707;-0.5320;1.696
14.724000;-0.6409;1.4485;-0.0275;1.584
14.727000;-0.6640;1.3407;0.6707;1.640
14.728000;-0.7913;1.1629;1.3671;1.962
14.729000;-0.8094;1.0635;1.9208;2.340
14.737000;-0.7943;1.0363;2.2955;2.641
14.748000;-0.7662;1.0314;2.4859;2.798
14.757000;-0.7379;1.0609;2.6406;2.940
14.767000;-0.7065;1.1202;3.0922;3.364
14.782000;-0.8711;0.9218;4.3760;4.556
14.787000;-1.1510;0.5330;5.0330;5.190
14.823000;-1.2406;0.1304;5.1164;5.266
14.825000;-1.4170;-0.0353;3.9766;4.222
14.828000;-1.6002;0.0010;2.5310;2.994
14.829000;-1.6922;0.1505;1.4167;2.212
14.838000;-1.6992;0.3339;0.8183;1.915
14.848000;-1.5603;0.4411;0.8358;1.824
14.857000;-1.3174;0.3786;1.2079;1.827
14.868000;-0.9905;0.2448;1.2309;1.599
14.882000;-0.8023;0.0566;1.0529;1.325
14.888000;-0.6861;-0.1333;0.6068;0.926
14.923000;-0.6430;-0.3197;0.1292;0.730
14.924000;-0.6404;-0.5599;-0.1886;0.871
14.925000;-0.6438;-0.8137;-0.1991;1.056
14.933000;-0.5305;-1.0373;-0.0272;1.165
14.938000;-0.3692;-1.2254;0.0698;1.282
14.948000;-0.3240;-1.4832;0.1626;1.527
14.958000;-0.1870;-1.7533;0.4379;1.817
14.968000;-0.0330;-2.0165;0.5863;2.100
14.984000;0.2222;-2.0891;0.6008;2.185
14.988000;0.3866;-1.9999;0.2379;2.051
15.023000;0.7252;-1.8035;-0.3568;1.976
15.025000;0.7123;-1.9361;-1.1914;2.382
15.026000;1.0053;-1.5303;-2.1723;2.841
15.032000;1.4504;-0.9283;-2.9565;3.422
15.038000;1.7771;-0.3301;-3.5911;4.020
15.048000;1.5405;-0.5683;-3.6901;4.039
15.058000;1.4809;-0.7421;-3.1083;3.522
15.068000;1.7950;0.1742;-1.8541;2.587
15.084000;0.6415;-1.7688;-0.4798;1.942
15.088000;1.2970;-0.5041;0.4848;1.474
15.123000;0.2576;-1.9020;0.6220;2.018
15.124000;0.7283;-0.0740;-0.1133;0.741
15.124000;0.1949;-0.6113;-0.9724;1.165
15.128000;0.3220;0.1259;-1.5205;1.559
15.137000;0.8762;1.2699;-1.8448;2.405
15.148000;1.0481;1.6907;-2.2681;3.017
15.157000;0.4221;0.9034;-2.6840;2.863
15.168000;0.1461;1.1240;-2.3912;2.646
15.187000;-0.1494;0.6680;-1.5760;1.718
15.189000;-0.2108;0.8924;-0.7769;1.202
15.228000;-0.8494;-0.0326;-0.3976;0.938
15.230000;-0.9841;-0.1469;-0.3780;1.064
15.230000;-0.9309;0.0288;-0.3351;0.990
15.231000;-0.7032;0.3349;-0.1901;0.802
15.237000;-0.4898;0.6778;0.2311;0.868
15.248000;-0.4642;0.6612;0.6964;1.067
15.258000;-0.4811;0.5593;0.8629;1.135
15.268000;-0.3118;1.0965;0.7863;1.385
15.286000;-0.3756;1.2676;0.8755;1.586
15.290000;-0.8178;1.0506;1.0081;1.670
15.329000;-0.6060;1.6109;1.0513;2.017
15.330000;-0.9287;1.2794;1.2020;1.986
15.332000;-0.7205;1.5960;1.7233;2.457
15.332000;-0.8500;1.3124;2.6333;3.063
15.337000;-0.5789;0.8534;3.7917;3.929
15.348000;-0.2281;0.7307;4.9560;5.015
15.358000;-0.0359;0.2525;5.9154;5.921
15.368000;0.2727;-0.1650;6.6012;6.609
15.378000;0.3947;-0.4819;6.6216;6.651
15.388000;0.4215;-0.6531;5.6548;5.708
15.425000;0.2954;-0.7798;3.9186;4.006
15.428000;0.0870;-0.7153;2.2934;2.404
15.429000;-0.1266;-0.7138;1.1997;1.402
15.430000;-0.2285;-0.8950;0.6853;1.150
15.438000;-0.1897;-1.1129;0.6356;1.296
15.448000;-0.1866;-1.4729;0.3781;1.532
15.458000;-0.0252;-1.5111;0.0238;1.511
15.468000;0.0226;-1.6417;-0.4723;1.708
15.479000;0.2859;-1.2774;-0.9982;1.646
15.492000;0.0946;-1.5126;-1.3933;2.059
15.545000;0.5985;-0.8556;-1.6326;1.938
15.547000;0.6633;-0.7653;-1.7229;1.999
15.548000;0.5449;-0.8019;-1.9119;2.144
15.549000;0.4167;-0.9063;-2.1052;2.330
15.550000;0.1982;-1.1105;-2.3766;2.631
15.551000;0.2889;-0.8049;-2.6621;2.796
15.558000;0.3859;-0.1518;-2.9056;2.935
15.568000;-0.4989;-1.4170;-2.8644;3.234
15.578000;0.2755;-0.0754;-2.0790;2.099
15.588000;-0.5121;-1.4147;-1.7231;2.287
15.625000;0.6344;0.3876;-1.6248;1.787
15.629000;0.0528;-0.4820;-2.1905;2.244
15.631000;0.1211;0.1532;-3.1855;3.191
15.632000;0.9627;1.6152;-3.9721;4.395
15.637000;0.9750;1.6575;-4.8866;5.251
15.648000;0.7241;1.6044;-4.9973;5.298
15.658000;0.7878;2.1272;-4.3477;4.904
15.668000;0.8065;2.3551;-2.8267;3.767
15.678000;0.4933;1.8225;-1.0607;2.166
15.688000;-0.2251;0.8212;0.3723;0.929
15.755000;-0.8678;-0.1603;1.6722;1.891
15.757000;-1.0249;-0.6645;2.4644;2.751
15.758000;-0.8790;-0.6017;2.3873;2.614
15.760000;-0.6165;-0.0943;1.4575;1.585
15.761000;-0.2994;0.6433;0.2420;0.750
15.762000;-0.0572;1.3606;-0.7031;1.533
15.763000;-0.0272;1.8447;-1.1294;2.163
15.768000;-0.1826;2.0006;-0.2038;2.019
15.779000;-0.7940;1.4802;0.8902;1.901
15.788000;-1.1290;1.0120;1.7422;2.310
15.827000;-1.4660;0.6629;2.4958;2.969
15.829000;-1.6639;0.3882;2.8874;3.355
15.830000;-2.3197;0.0455;3.3187;4.049
15.832000;-2.6844;-0.2694;3.5409;4.452
15.838000;-2.5339;-0.3986;2.7588;3.767
15.848000;-2.0992;-0.1746;1.8872;2.828
15.858000;-1.6377;0.1864;1.3124;2.107
15.868000;-0.5831;1.3272;1.6662;2.209
15.878000;-0.9809;-0.0824;2.5795;2.761
15.889000;-0.4883;0.6761;3.7348;3.827
15.926000;-1.2253;-0.9112;3.9049;4.193
15.928000;-1.0971;-1.1806;3.8019;4.129
15.930000;-1.0025;-1.2246;3.2585;3.623
15.932000;-0.8562;-1.2461;2.3815;2.821
15.938000;-0.6280;-0.9993;1.5674;1.962
15.949000;-0.4329;-0.6218;0.6184;0.978
15.958000;-0.3948;-0.5264;-0.1047;0.666
15.968000;-0.7132;-1.0338;-0.4523;1.335
15.978000;-0.7872;-1.0245;-0.5285;1.396
15.989000;-0.6967;-0.9823;-0.3929;1.267
16.036000;-1.0126;-1.6466;-0.3193;1.959
16.038000;-0.6498;-1.2916;-0.2725;1.471
16.040000;-0.8766;-1.7804;-0.2595;2.001
16.042000;-0.4770;-1.5207;-0.7432;1.759
16.043000;-0.2335;-1.3367;-1.2212;1.826
16.048000;0.1074;-1.2636;-1.9612;2.335
16.058000;0.4239;-0.9216;-2.4674;2.668
16.068000;0.6177;-0.6981;-2.7659;2.919
16.078000;1.0234;-0.4156;-2.9172;3.119
16.089000;1.0416;-0.1456;-2.0996;2.348
16.141000;1.0303;-0.1511;-2.0989;2.343
16.143000;0.8823;-0.0864;-1.7522;1.964
16.144000;0.7122;0.0996;-1.9100;2.041
16.145000;0.5112;0.3235;-2.2373;2.318
16.147000;0.4246;0.5767;-2.6029;2.700
16.148000;0.2320;0.7730;-2.8001;2.914
16.157000;0.0297;0.8031;-2.6022;2.723
16.168000;0.0175;0.8106;-2.3068;2.445
16.177000;-0.0437;0.7726;-1.8604;2.015
16.188000;-0.1848;0.6288;-1.2671;1.427
16.230000;-0.2969;0.4717;-0.6173;0.832
16.231000;-0.3680;0.2854;0.0150;0.466
16.232000;-0.3682;0.2503;0.4621;0.642
16.233000;-0.1935;0.3794;0.8466;0.948
16.238000;-0.1109;0.5766;1.2127;1.347
16.248000;-0.0866;0.7004;1.5202;1.676
16.258000;-0.0455;0.8148;1.6701;1.859
16.268000;-0.2288;0.9621;1.6785;1.948
16.278000;-0.4222;1.0463;1.6243;1.978
16.289000;-0.6424;1.0389;1.7394;2.125
16.328000;-0.9176;0.8877;2.1406;2.492
16.329000;-1.0969;0.6115;2.4830;2.783
16.330000;-1.1205;0.4614;2.6810;2.942
16.331000;-0.9987;0.5110;2.9359;3.143
16.338000;-0.7372;0.6899;3.0865;3.247
16.348000;-0.4600;0.8396;3.1446;3.287
16.358000;-0.1905;0.9181;2.9041;3.052
16.368000;-0.1469;0.8107;2.8117;2.930
16.378000;-0.2423;0.5199;3.1919;3.243
16.389000;-0.4834;0.0515;3.7339;3.765
16.432000;-0.8892;-0.4948;4.3915;4.508
16.434000;-1.1555;-0.9192;4.6400;4.869
16.435000;-1.2902;-1.1840;4.3744;4.712
16.437000;-1.1903;-1.3131;3.7519;4.149
16.438000;-0.5024;-1.2518;2.1872;2.570
16.449000;0.0286;-1.0312;1.4024;1.741
16.457000;0.5468;-0.8229;0.6480;1.182
16.468000;1.0245;-0.6821;-0.1080;1.236
16.478000;1.4946;-0.5872;-0.8262;1.806
16.488000;1.9226;-0.5585;-1.2145;2.342
16.526000;2.2423;-0.5716;-1.3730;2.691
16.529000;2.4728;-0.5485;-1.3496;2.870
16.530000;2.3826;-0.6570;-1.1875;2.742
16.532000;2.0543;-0.8904;-0.9412;2.429
16.538000;1.5903;-1.1893;-0.8847;2.174
16.549000;1.1519;-1.4454;-1.1068;2.154
16.557000;0.9290;-1.5224;-1.3627;2.245
16.568000;0.8776;-1.3887;-1.8603;2.482
16.577000;0.9655;-1.0886;-2.4970;2.890
16.589000;1.0338;-0.7707;-3.1215;3.377
16.650000;1.0105;-0.4840;-3.7307;3.895
16.653000;1.0691;-0.1090;-4.1424;4.280
16.654000;1.1960;0.3074;-4.1900;4.368
16.656000;1.0891;0.5330;-4.0438;4.222
16.657000;0.8528;0.6151;-3.9264;4.065
16.658000;0.6023;0.6634;-3.7752;3.880
16.659000;0.3426;0.6448;-3.5371;3.612
16.668000;0.1640;0.6614;-3.2814;3.351
16.678000;0.0177;0.7470;-2.9966;3.088
16.689000;-0.1561;0.7932;-2.4529;2.583
16.742000;-0.5255;0.6716;-1.6204;1.831
16.744000;-0.9054;0.3840;-0.5879;1.146
16.745000;-1.2544;0.1436;0.2021;1.279
16.748000;-1.5274;0.0330;0.8799;1.763
16.750000;-1.7002;0.1552;1.1320;2.048
16.751000;-1.7685;0.4701;0.8148;2.003
16.758000;-1.9883;0.7950;0.1683;2.148
16.769000;-2.1078;1.6626;-0.5770;2.746
16.778000;-1.8749;2.0924;-0.1604;2.814
16.788000;-1.5676;2.3089;0.7166;2.881
16.825000;-1.4138;2.2174;1.9453;3.271
16.827000;-1.3143;1.9254;3.0075;3.805
16.829000;-1.2979;1.7001;3.6643;4.243
16.831000;-1.2272;1.5956;3.8064;4.306
16.838000;-1.0020;1.7088;3.2795;3.831
16.849000;-0.5954;1.9410;2.6080;3.305
16.858000;0.0071;2.2039;2.3450;3.218
16.868000;0.5086;2.3436;2.5427;3.495
16.877000;0.5921;2.1165;3.1041;3.803
16.888000;0.3537;1.4227;3.7945;4.068
16.931000;-0.1413;0.5567;4.5094;4.546
16.933000;-0.5801;-0.2243;4.9780;5.017
16.935000;-0.9010;-0.8378;4.7943;4.950
16.937000;-0.9811;-1.1420;4.0801;4.349
16.939000;-0.8680;-1.1580;3.1140;3.434
16.949000;-0.5356;-0.9832;1.8943;2.200
16.958000;-0.3027;-0.7892;0.6398;1.060
16.968000;-0.2001;-0.6320;-0.4761;0.816
16.977000;-0.1608;-0.4526;-1.6988;1.765
16.988000;-0.2003;-0.2681;-2.6988;2.719
17.006000;-0.2614;-0.1879;-3.4647;3.480
17.014000;-0.4019;-0.2468;-3.7928;3.822
17.052000;-0.6808;-0.5742;-3.0160;3.145
17.055000;-0.6993;-0.7956;-1.8221;2.108
17.056000;-0.6948;-1.1001;-0.9736;1.625
17.058000;-0.6978;-1.4119;-0.3642;1.616
17.067000;-0.5885;-1.5663;-0.1581;1.681
17.077000;-0.3514;-1.4849;-0.4726;1.597
17.088000;-0.0323;-1.1863;-1.1480;1.651
17.103000;0.3857;-0.7081;-2.6610;2.780
17.107000;0.8523;-0.1047;-3.1995;3.313
17.144000;1.0719;0.1696;-3.3413;3.513
17.147000;1.0964;0.2134;-3.0982;3.293
17.149000;1.0523;0.0599;-2.5038;2.717
17.150000;1.0362;-0.1641;-1.6156;1.926
17.158000;0.9828;-0.3125;-0.9313;1.390
17.168000;0.9000;-0.2798;-0.5463;1.089
17.177000;0.8001;-0.1554;-0.4037;0.910
17.189000;0.7062;-0.0702;-0.3050;0.772
17.204000;0.7019;0.0040;-0.0532;0.704
17.208000;0.6644;0.1427;0.3485;0.764
17.260000;0.4784;0.1255;0.8265;0.963
17.262000;0.2367;-0.0389;1.0698;1.096
17.263000;-0.0011;-0.2786;1.1986;1.231
17.264000;-0.1641;-0.4439;1.2678;1.353
17.265000;-0.1817;-0.4694;1.4649;1.549
17.268000;-0.0852;-0.4421;1.5852;1.648
17.278000;-0.0168;-0.2885;1.2473;1.280
17.290000;-0.0643;0.0210;0.3653;0.372
17.346000;-0.2910;0.2246;-0.3157;0.485
17.348000;-0.1099;0.3931;-0.4911;0.639
17.348000;0.2577;0.5414;-0.0087;0.600
17.349000;0.5522;0.3203;1.2419;1.396
17.350000;0.7940;-0.1328;2.5680;2.691
17.351000;0.8814;-0.6677;4.2117;4.354
17.358000;0.9839;-1.1713;5.6086;5.813
17.368000;1.1975;-1.4339;6.4825;6.746
17.378000;1.4823;-1.5168;6.4533;6.793
17.388000;1.7758;-1.4034;5.5424;5.987
17.404000;1.7663;-1.2137;3.9240;4.471
17.408000;1.6351;-0.9727;2.2371;2.937
17.451000;1.6808;-0.6688;1.0132;2.073
17.452000;1.8819;-0.3337;-0.0754;1.913
17.453000;2.1622;0.2360;-1.4540;2.616
17.454000;1.9321;0.1456;-1.4915;2.445
17.457000;1.6271;-0.1797;-1.0769;1.960
17.468000;1.3939;-0.4491;-0.6553;1.604
17.477000;1.2063;-0.4504;-0.2391;1.310
17.488000;0.9406;-0.2880;0.2103;1.006
17.498000;0.4691;-0.2723;0.5993;0.808
17.508000;-0.0028;-0.4109;0.7038;0.815
17.552000;-0.3755;-0.4439;0.4677;0.746
17.554000;-0.7516;-0.4296;0.1368;0.876
17.555000;-0.9508;-0.4013;-0.2444;1.061
17.556000;-1.0248;-0.3152;-0.6654;1.262
17.558000;-1.1118;-0.2174;-1.0645;1.555
17.567000;-1.0728;-0.0067;-1.6978;2.008
17.577000;-1.0913;0.2181;-2.1338;2.407
17.588000;-1.0662;0.3835;-2.7964;3.017
17.598000;-1.0362;0.6274;-3.1028;3.331
17.608000;-0.9365;1.0203;-3.1406;3.432
17.655000;-0.8628;1.3856;-3.5037;3.865
17.657000;-0.9741;1.5305;-3.7016;4.122
17.659000;-1.2610;1.4881;-3.4289;3.945
17.660000;-1.3743;1.3667;-3.0907;3.648
17.662000;-1.3675;1.2122;-2.5535;3.140
17.668000;-1.4750;1.1584;-1.6033;2.467
17.677000;-1.3998;1.1089;-0.7504;1.937
17.688000;-1.2269;1.0882;-0.1340;1.645
17.698000;-1.1423;0.9793;0.4538;1.572
17.708000;-1.0867;0.7585;1.1188;1.734
17.751000;-0.9316;0.5898;1.4319;1.807
17.752000;-0.5698;0.6888;1.4030;1.664
17.754000;-0.1541;0.9717;1.1051;1.480
17.756000;0.1640;1.2820;0.6492;1.446
17.758000;0.3765;1.5993;0.5680;1.738
17.768000;-0.0500;1.6692;1.3669;2.158
17.778000;-0.4818;1.4305;2.1814;2.653
17.788000;-0.8421;1.3624;2.5081;2.976
17.798000;-1.0673;1.4005;2.3438;2.932
17.809000;-1.0934;1.4967;1.7204;2.529
17.872000;-0.9527;1.6269;1.2687;2.272
17.873000;-0.9060;1.6600;1.0620;2.169
17.875000;-1.1377;1.5182;1.2322;2.262
17.876000;-1.5068;0.9904;1.7489;2.512
17.877000;-1.8218;0.2140;2.4337;3.048
17.878000;-1.9890;-0.5784;2.8925;3.558
17.879000;-1.8169;-1.0199;2.7796;3.474
17.888000;-1.4168;-1.0752;2.2909;2.900
17.899000;-0.9009;-0.8756;1.5133;1.967
17.912000;-0.5482;-0.6054;0.4199;0.918
17.955000;-0.2543;-0.3250;-0.6702;0.787
17.957000;-0.0587;-0.1305;-1.6315;1.638
17.958000;0.0499;-0.0206;-2.4639;2.464
17.959000;0.1704;0.0387;-2.8751;2.880
17.961000;0.1139;-0.0131;-2.9604;2.963
17.968000;-0.0235;-0.3562;-2.5600;2.585
17.978000;-0.2086;-0.8296;-1.6547;1.863
17.988000;-0.3223;-1.3597;-0.1121;1.402
17.998000;-0.3317;-1.8677;1.3097;2.305
18.008000;-0.2316;-2.1613;1.7272;2.776
18.048000;0.0687;-2.0364;1.1722;2.351
18.050000;0.4956;-1.5518;-0.2121;1.643
18.052000;0.8508;-0.9920;-1.6122;2.075
18.053000;1.2830;-0.5048;-2.6721;3.007
18.058000;1.4910;-0.2215;-3.0073;3.364
18.068000;1.3644;-0.3174;-2.8873;3.209
18.077000;1.2185;-0.6137;-2.6028;2.939
18.088000;0.9143;-0.9369;-2.0648;2.445
18.098000;0.3996;-1.3210;-0.7252;1.559
18.108000;0.0813;-1.4634;-0.4803;1.542
18.153000;-0.2266;-1.4162;-0.4562;1.505
18.154000;-0.4977;-1.3424;-0.1162;1.436
18.155000;-0.3297;-1.2535;0.1348;1.303
18.156000;-0.0188;-0.9924;0.3470;1.052
18.158000;0.2751;-0.6739;0.4508;0.856
18.168000;0.4200;-0.5552;0.5696;0.900
18.177000;0.5817;-0.5994;0.8300;1.178
18.188000;0.7194;-0.5162;0.9124;1.271
18.198000;0.7837;-0.3017;0.7803;1.146
18.208000;0.6975;-0.1503;0.6964;0.997
18.246000;0.5599;-0.1717;0.7639;0.963
18.247000;0.1979;-0.3579;1.2085;1.276
18.249000;0.0294;-0.6214;1.7011;1.811
18.250000;0.1278;-0.8628;2.2595;2.422
18.258000;0.6919;-0.8017;2.9816;3.164
18.268000;1.4279;-0.5055;4.0067;4.283
18.277000;2.1298;-0.2282;4.8624;5.313
18.288000;2.6352;0.0570;4.7231;5.409
18.298000;2.8709;0.4062;2.8075;4.036
18.309000;2.3476;0.7045;0.3702;2.479
18.376000;1.7028;0.6274;-1.3363;2.254
18.378000;1.2665;0.3631;-2.3587;2.702
18.380000;0.9054;0.2764;-2.1933;2.389
18.381000;0.5653;-0.0293;-1.0377;1.182
18.382000;0.4096;-0.6464;0.4019;0.864
18.383000;0.1628;-1.3598;1.7142;2.194
18.385000;-0.2295;-1.8307;2.4305;3.051
18.389000;-0.4614;-2.0524;2.5453;3.302
18.398000;-0.5534;-2.0261;2.1827;3.029
18.408000;-0.4941;-1.6908;1.5687;2.359
18.448000;-0.4150;-1.2748;0.9220;1.627
18.450000;-0.3724;-0.9361;-0.3570;1.069
18.450000;-0.5325;-0.6484;-0.9204;1.245
18.452000;-0.6734;-0.5668;-1.4688;1.712
18.458000;-0.7914;-0.3688;-1.9881;2.171
18.468000;-0.6027;0.0480;-2.5300;2.601
18.478000;-0.1821;0.6058;-2.9913;3.057
18.488000;0.3030;1.1981;-3.5195;3.730
18.498000;0.5674;1.5854;-3.7939;4.151
18.509000;0.6780;1.7008;-3.6145;4.052
18.562000;0.5177;1.6349;-3.1444;3.582
18.564000;0.1422;1.4153;-2.8533;3.188
18.566000;-0.2327;1.2146;-2.8920;3.145
18.568000;-0.7704;0.9988;-2.9644;3.222
18.570000;-1.2497;0.9142;-3.2210;3.574
18.571000;-1.5386;1.0430;-3.5790;4.033
18.578000;-1.6166;1.3610;-3.9829;4.509
18.589000;-1.5611;1.8340;-3.9299;4.609
18.598000;-1.4111;2.2714;-3.3434;4.281
18.608000;-1.2757;2.4158;-2.0089;3.391
18.665000;-1.3440;2.3371;-0.5136;2.744
18.670000;-1.5585;2.2603;0.7753;2.853
18.671000;-1.7993;2.0354;1.7316;3.222
18.673000;-2.1258;1.6590;2.3018;3.545
18.673000;-2.1694;1.6190;2.5258;3.702
18.675000;-2.0881;1.8209;2.9196;4.025
18.678000;-2.0134;1.8495;3.7526;4.643
18.688000;-2.1313;1.5875;4.8343;5.517
18.698000;-2.1336;1.0472;4.9890;5.526
18.709000;-1.9683;0.7066;4.1199;4.620
18.752000;-1.7119;0.6689;2.7620;3.318
18.754000;-1.0674;0.9586;1.2795;1.922
18.756000;-0.3822;1.5913;0.0341;1.637
18.757000;-0.1456;2.0052;-0.0267;2.011
18.758000;-0.1059;1.7413;3.0346;3.500
18.769000;-0.0435;0.0910;4.3519;4.353
18.778000;-0.0935;-0.6075;5.4246;5.459
18.788000;-0.1825;-1.0837;5.0792;5.197
18.797000;-0.2673;-1.0057;3.3231;3.482
18.808000;-0.6007;-0.5642;1.3362;1.570
18.856000;-0.7791;-0.1909;-0.1681;0.820
18.857000;-0.9470;-0.0822;-1.2190;1.546
18.858000;-1.1799;-0.1409;-1.4125;1.846
18.860000;-1.2452;-0.4129;-1.0385;1.673
18.860000;-1.2211;-0.8942;-0.3532;1.554
18.869000;-0.9691;-1.3758;0.2200;1.697
18.878000;-0.4828;-1.5432;0.2981;1.644
18.889000;0.0638;-1.4646;-0.0381;1.466
18.897000;0.4834;-1.2176;-0.7336;1.501
18.909000;1.0092;-0.7723;-1.8354;2.232
18.952000;1.3493;-0.4135;-2.6611;3.012
18.954000;1.6972;-0.2136;-2.9983;3.452
18.956000;1.8790;-0.0951;-2.9312;3.483
18.958000;1.6716;-0.2401;-2.3258;2.874
18.959000;1.2592;-0.7978;-1.5312;2.137
18.970000;0.7985;-1.2931;-1.1723;1.919
18.978000;0.3107;-1.6051;-0.9969;1.915
18.988000;-0.0982;-1.7516;-0.6498;1.871
18.998000;-0.1859;-1.7041;-0.4968;1.785
19.009000;-0.4117;-1.5616;-0.7185;1.768
19.074000;-0.6808;-1.3977;-1.0355;1.868
19.075000;-0.8129;-1.3189;-1.1630;1.937
19.077000;-0.9267;-1.3619;-0.9786;1.916
19.078000;-0.8040;-1.4148;-0.8083;1.817
19.079000;-0.5359;-1.2880;-0.6082;1.522
19.080000;-0.3503;-1.0957;-0.5514;1.276
19.081000;-0.1765;-0.9180;-0.5728;1.096
19.088000;-0.0498;-0.9329;-0.1721;0.950
19.097000;-0.2281;-2.2247;3.8579;4.459
19.108000;-0.4738;-3.1560;6.1704;6.947
19.149000;-0.6103;-3.8800;7.4925;8.460
19.152000;-0.1201;-3.7605;7.4759;8.369
19.154000;1.0899;-2.5980;6.8734;7.428
19.156000;2.4632;-1.0191;5.7031;6.295
19.158000;3.6739;0.4693;3.2291;4.914
19.169000;4.3882;1.5470;0.7979;4.721
19.177000;4.4041;1.7988;-1.1190;4.887
19.188000;3.6380;1.1469;-1.5909;4.133
19.197000;2.5360;-0.0340;-0.9989;2.726
19.209000;1.6540;-1.1272;-0.2997;2.024
19.254000;1.0127;-1.7556;-0.0196;2.027
19.256000;0.5302;-1.9196;-0.0487;1.992
19.258000;0.2674;-1.8364;-0.3417;1.887
19.259000;0.1318;-1.5849;-1.0779;1.921
19.260000;0.0762;-1.2927;-1.7869;2.207
19.270000;-0.1411;-1.0824;-2.0864;2.355
19.278000;-0.5855;-0.8842;-2.2448;2.483
19.288000;-1.1398;-0.7662;-2.4459;2.805
19.298000;-1.8429;-0.9157;-2.5758;3.297
19.308000;-2.5345;-1.2146;-2.6973;3.895
19.371000;-3.1454;-1.4883;-2.4661;4.265
19.374000;-3.3927;-1.6820;-2.1630;4.361
19.376000;-3.1642;-1.6158;-1.9828;4.069
19.377000;-2.5389;-1.1280;-2.3351;3.629
19.379000;-1.9046;-0.1961;-2.6346;3.257
19.380000;-1.4236;0.5613;-2.2733;2.740
19.381000;-0.9353;1.1576;-1.9450;2.449
19.388000;-0.5114;1.7894;-1.7158;2.531
19.398000;-0.3018;2.2277;-1.2209;2.558
19.408000;-0.1457;2.4046;-0.4576;2.452
19.450000;0.2150;2.5415;0.2122;2.559
19.452000;0.2639;2.6937;0.2303;2.716
19.453000;0.2911;2.7719;0.7122;2.877
19.455000;0.2551;2.7161;1.3714;3.053
19.458000;0.0599;2.5242;2.0738;3.267
19.470000;-0.0962;2.2140;2.9475;3.688
19.478000;0.0113;2.0580;3.4947;4.056
19.488000;0.2188;2.1485;3.9146;4.471
19.498000;0.3539;2.3228;3.7145;4.395
19.508000;0.4889;2.4882;3.1944;4.078
19.550000;0.6088;2.6308;2.8809;3.949
19.552000;0.5152;2.5769;2.9965;3.986
19.554000;0.2743;2.1477;3.7083;4.294
19.557000;-0.1428;1.3916;4.1844;4.412
19.559000;-0.7549;0.6024;3.5429;3.672
19.568000;-1.1341;0.1600;1.5789;1.951
19.577000;-1.2414;0.2719;-0.8457;1.527
19.591000;-1.3218;0.9564;-2.9301;3.354
19.598000;-1.2642;1.6953;-4.2244;4.724
19.634000;-1.1419;2.1207;-4.0261;4.692
19.636000;-0.8107;1.9747;-2.1588;3.036
19.637000;-0.2201;1.2463;-0.0493;1.267
19.638000;0.1128;0.2385;1.8114;1.831
19.648000;0.2598;-0.8392;3.9122;4.010
19.658000;0.1078;-1.8154;4.9319;5.256
19.668000;-0.0695;-2.2491;5.1127;5.586
19.678000;-0.2342;-2.1971;4.5053;5.018
19.691000;-0.3190;-1.9424;3.4540;3.976
19.697000;-0.3060;-1.7901;2.7008;3.255
19.753000;-0.1577;-1.6111;2.3094;2.820
19.755000;0.0194;-1.3840;1.9220;2.368
19.756000;0.0967;-1.2207;1.4869;1.926
19.757000;0.1163;-1.2077;0.8833;1.501
19.758000;0.1979;-1.1660;-0.2011;1.200
19.760000;0.7189;-0.5180;-2.8657;3.000
19.768000;1.2515;-0.2929;-3.9064;4.112
19.778000;1.7555;-0.0521;-4.5304;4.859
19.792000;2.1303;0.1910;-4.6056;5.078
19.798000;2.5451;0.3123;-4.5989;5.265
19.837000;2.8318;0.3409;-4.4837;5.314
19.840000;2.8654;0.3513;-4.1061;5.019
19.841000;2.5675;0.0712;-3.4313;4.286
19.842000;2.1344;-0.4456;-2.8282;3.571
19.848000;1.6538;-0.9970;-2.1753;2.909
19.858000;1.1952;-1.4800;-1.7297;2.571
19.872000;0.7546;-1.8228;-1.4523;2.450
19.878000;0.4323;-2.0842;-1.1222;2.406
19.888000;0.4484;-2.0862;-0.9675;2.343
19.897000;0.8144;-1.7879;-0.5311;2.035
19.910000;0.9809;-1.5301;0.4534;1.873
19.918000;0.5824;-1.8423;1.9095;2.717
19.961000;0.0947;-2.6034;3.0939;4.045
19.962000;-0.3859;-3.2084;3.7247;4.931
19.964000;-0.6485;-3.3197;4.0037;5.241
19.966000;-0.6118;-3.0552;4.2463;5.267
19.968000;-0.3232;-2.5768;4.4317;5.137
19.978000;0.1338;-2.0635;4.3997;4.861
19.992000;0.6853;-1.5001;3.8937;4.229
19.998000;1.1032;-0.9302;2.9949;3.324
20.049000;1.6981;-0.1183;2.1514;2.743
20.051000;2.3635;0.7669;1.9838;3.180
20.052000;3.0179;1.2723;1.9401;3.807
20.055000;3.1554;1.3029;1.5249;3.739
20.057000;2.3960;0.9543;1.0491;2.784
20.058000;1.3403;0.3371;0.4588;1.456
20.069000;0.6029;-0.3498;-0.1149;0.706
20.078000;0.0240;-0.8025;-0.1738;0.821
20.091000;-0.5140;-1.0498;-0.4071;1.238
20.097000;-0.3649;-0.8231;-0.6883;1.133
20.139000;-0.0985;-0.5443;-1.1226;1.252
20.140000;0.1653;-0.1678;-1.8145;1.830
20.141000;0.2054;0.1605;-2.1850;2.201
20.142000;0.5166;0.5210;-2.3181;2.431
20.148000;0.7739;0.8556;-2.2172;2.499
20.158000;0.6698;0.8381;-1.6103;1.935
20.168000;0.3630;0.6095;-0.8094;1.076
20.178000;-0.1061;0.1970;-0.0316;0.226
20.192000;-0.5257;-0.2931;0.5503;0.816
20.198000;-0.7030;-0.6021;0.4267;1.019
20.254000;-0.6639;-0.5493;-0.4714;0.982
20.256000;-0.2648;-0.1462;-1.6439;1.672
20.257000;0.0695;0.3356;-2.9317;2.952
20.259000;0.1911;0.9094;-4.1634;4.266
20.260000;0.1795;1.2613;-4.7140;4.883
20.261000;-0.0322;1.2827;-4.6499;4.824
20.268000;-0.4347;1.0887;-4.0237;4.191
20.278000;-0.5958;1.0080;-3.4491;3.642
20.288000;-0.5254;1.2211;-2.9691;3.253
20.298000;-0.4790;1.5282;-2.0728;2.619
20.311000;-0.4051;1.6572;-0.7439;1.861
20.318000;-0.4474;1.5653;0.4773;1.697
20.362000;-0.6328;1.4401;1.4954;2.170
20.364000;-0.6784;1.4594;2.3661;2.862
20.365000;-0.7662;1.5335;3.0195;3.472
20.367000;-0.9676;1.5409;3.4044;3.860
20.369000;-1.1781;1.5142;3.7487;4.211
20.378000;-1.3610;1.4816;4.2727;4.723
20.388000;-1.5361;1.3163;5.2697;5.645
20.398000;-1.4682;1.0304;6.2480;6.500
20.408000;-1.3297;0.8249;6.7728;6.951
20.417000;-1.5474;0.6625;3.6101;3.983
20.453000;-1.7668;1.4301;1.4400;2.691
20.455000;-1.2854;2.1604;-0.2460;2.526
20.456000;-0.8863;2.7547;0.1141;2.896
20.458000;-0.9359;2.4118;1.8715;3.193
20.468000;-1.3295;1.2819;3.1227;3.628
20.478000;-1.9368;0.0297;3.5146;4.013
20.488000;-2.3968;-0.8904;3.4089;4.261
20.497000;-2.4433;-1.2773;2.9149;4.012
20.508000;-2.2294;-1.2379;2.1429;3.331
20.517000;-2.0614;-1.0498;1.5209;2.768
20.565000;-1.8790;-0.8525;1.0660;2.322
20.568000;-1.1392;-0.4000;0.7334;1.413
20.570000;-0.5695;-0.1178;0.5154;0.777
20.571000;-0.2848;-0.1760;0.0039;0.335
20.572000;0.2381;-0.1543;-0.0379;0.286
20.578000;0.6587;-0.0845;0.1873;0.690
20.590000;0.7403;-0.1930;0.0094;0.765
20.598000;0.5974;-0.4446;-0.4679;0.879
20.609000;0.4700;-0.5916;-0.8656;1.149
20.618000;0.3615;-0.7217;-1.5433;1.742
20.629000;0.2994;-0.7535;-2.3441;2.480
20.678000;0.3529;-0.6355;-2.9637;3.051
20.679000;0.1941;-0.5803;-3.5579;3.610
20.680000;-0.1652;-0.6389;-3.8648;3.921
20.681000;-0.5378;-0.8165;-4.4030;4.510
20.683000;-0.7434;-0.8600;-4.5558;4.696
20.689000;-1.1743;-1.0136;-4.1701;4.449
20.698000;-1.4565;-1.0915;-3.4335;3.886
20.708000;-1.3586;-1.1686;-1.9788;2.670
20.718000;-1.0754;-1.4369;-0.4835;1.859
20.728000;-0.7996;-1.4733;0.5422;1.762
20.772000;-0.4710;-1.2931;1.3994;1.963
20.774000;0.0118;-1.1568;1.8168;2.154
20.774000;0.7402;-0.9600;1.8425;2.206
20.775000;0.8713;-0.9095;1.9798;2.346
20.779000;0.9098;-0.9249;2.0160;2.397
20.789000;0.8484;-1.0095;2.0533;2.440
20.798000;0.9279;-1.0976;2.3208;2.730
20.808000;1.2982;-1.0828;3.0019;3.445
20.817000;1.6183;-1.1385;4.2490;4.687
20.828000;1.9313;-1.4992;5.2962;5.833
20.864000;2.1971;-1.7313;5.8434;6.478
20.867000;2.3793;-1.6937;5.0290;5.816
20.871000;2.4170;-1.2520;3.0538;4.091
20.872000;2.4859;-0.5263;1.4071;2.905
20.878000;2.8155;0.3037;0.2964;2.847
20.889000;3.0673;0.9630;-0.1114;3.217
20.897000;2.7210;0.9055;0.4521;2.903
20.908000;2.1559;0.0386;1.4475;2.597
20.917000;1.4400;-1.0352;2.3085;2.911
20.932000;0.7852;-1.7448;2.6467;3.266
20.980000;0.4539;-1.9746;2.5356;3.246
20.982000;0.4770;-1.8198;1.9404;2.703
20.983000;0.5968;-1.4173;1.0296;1.851
20.984000;0.6568;-0.9899;0.0925;1.192
20.985000;0.7831;-0.5570;-0.9191;1.330
20.989000;0.7901;-0.2355;-1.7391;1.925
20.997000;0.7365;-0.0416;-2.3012;2.416
21.009000;0.6299;-0.0056;-2.6338;2.708
21.017000;0.5467;-0.0636;-2.8074;2.861
21.055000;0.3932;-0.1952;-2.9577;2.990
21.058000;0.0538;-0.4635;-3.2609;3.294
21.059000;-0.3396;-0.8064;-3.6652;3.768
21.060000;-0.6362;-1.0182;-4.2414;4.408
21.068000;-0.9208;-1.1318;-4.5325;4.762
21.078000;-0.7772;-1.0713;-4.5606;4.749
21.088000;-0.2536;-0.3958;-4.8482;4.871
21.097000;-0.0190;0.0527;-4.9213;4.922
21.108000;0.0739;0.4191;-5.0933;5.111
21.117000;0.2061;0.7267;-5.2897;5.343
21.127000;0.1705;0.9750;-5.2146;5.308
21.187000;0.0723;1.1049;-4.7140;4.842
21.189000;0.0601;1.1604;-3.8924;4.062
21.191000;0.0778;1.1842;-2.7041;2.953
21.192000;0.1150;1.1560;-1.5262;1.918
21.193000;0.1841;1.2170;-0.4502;1.311
21.194000;0.2614;1.3280;0.3965;1.410
21.198000;0.4023;1.4719;0.7566;1.703
21.208000;0.4234;1.7216;0.7405;1.921
21.218000;0.4296;2.1068;0.5836;2.228
21.228000;0.5371;2.5071;0.7704;2.677
21.279000;0.5995;2.7383;1.2878;3.085
21.281000;0.4669;2.8201;1.8081;3.382
21.282000;0.2055;2.7464;2.2754;3.572
21.283000;-0.1467;2.6313;2.5045;3.636
21.284000;-0.6364;2.3729;2.9723;3.856
21.290000;-0.9995;1.9110;3.7605;4.335
21.297000;-1.1441;1.5139;4.4662;4.853
21.309000;-1.3223;1.4108;4.3389;4.750
21.317000;-1.6706;1.6214;2.8758;3.700
21.328000;-1.9390;1.9617;1.2375;3.023
21.382000;-2.1131;2.1713;0.1920;3.036
21.384000;-2.2179;2.2061;-0.4799;3.165
21.385000;-2.0607;2.2650;-0.3182;3.079
21.387000;-1.8073;2.0520;0.9436;2.893
21.389000;-1.7586;1.3516;2.5115;3.351
21.390000;-1.6846;0.3611;3.9155;4.278
21.398000;-1.8215;-0.6030;4.6256;5.008
21.408000;-1.7498;-1.3003;4.7363;5.214
21.418000;-0.8985;-1.6447;2.3669;3.019
21.428000;-0.3236;-1.3743;0.5706;1.523
21.475000;0.3817;-0.8552;-1.0998;1.444
21.476000;1.2174;-0.1864;-2.2548;2.569
21.478000;1.7363;0.2159;-2.6046;3.138
21.479000;2.0065;0.1555;-2.0713;2.888
21.480000;1.9585;-0.3277;-0.8695;2.168
21.490000;1.4825;-1.2671;0.8386;2.123
21.498000;0.7541;-2.4719;1.9938;3.264
21.513000;0.1289;-3.3620;2.5828;4.241
21.518000;-0.1912;-3.7713;2.1999;4.370
21.571000;-0.2886;-3.6760;0.9905;3.818
21.573000;-0.2198;-3.3377;-0.5175;3.385
21.575000;0.1819;-2.7738;-2.0462;3.452
21.576000;0.8558;-1.8549;-3.3232;3.901
21.578000;1.1912;-1.0604;-4.0915;4.391
21.579000;1.2457;-0.7062;-4.3781;4.606
21.589000;0.9159;-0.8482;-4.0573;4.245
21.598000;0.2477;-1.4038;-2.9504;3.277
21.608000;-0.3758;-2.0126;-2.0593;2.904
21.617000;-0.8335;-2.3231;-1.6633;2.976
21.628000;-1.1685;-2.3310;-1.5689;3.043
21.684000;-1.3346;-2.1356;-1.4377;2.900
21.686000;-1.2481;-1.8595;-1.2619;2.571
21.689000;-1.1377;-1.4973;-1.1798;2.220
21.690000;-1.0750;-1.2738;-0.8346;1.864
21.692000;-0.8131;-1.0861;-0.6302;1.496
21.692000;-0.5406;-0.8018;-0.6484;1.164
21.698000;-0.4694;-0.6170;-0.2724;0.822
21.708000;-0.4882;-0.7229;0.5156;1.013
21.718000;-0.3626;-0.9119;1.5222;1.811
21.728000;-0.1626;-1.0067;2.3715;2.581
21.773000;0.0343;-0.9939;2.9961;3.157
21.774000;0.4319;-0.8362;3.2919;3.424
21.775000;0.2786;-0.6861;2.9662;3.057
21.776000;0.0846;-0.3961;2.0734;2.113
21.778000;-0.2299;-0.0349;0.7716;0.806
21.789000;-0.4277;0.4699;-0.3222;0.712
21.798000;-0.1943;1.1244;-0.6497;1.313
21.808000;0.4476;1.9283;-0.1345;1.984
21.817000;1.2947;2.6708;1.3266;3.251
21.828000;1.7761;2.9433;2.8095;4.440
21.837000;1.7132;2.3698;4.4079;5.290
21.894000;0.9261;1.1919;5.4678;5.672
21.896000;-0.1063;-0.0203;6.5648;6.566
21.898000;-0.9536;-1.0388;7.2048;7.341
21.900000;-1.3824;-1.6896;7.6003;7.908
21.901000;-1.2698;-1.7769;7.0224;7.354
21.902000;-0.6710;-1.1367;5.8796;6.026
21.908000;0.1140;-0.3146;4.7383;4.750
21.917000;0.6635;0.2374;3.3837;3.456
21.928000;0.7814;0.3242;1.9325;2.110
21.938000;0.7706;0.2222;0.7258;1.082
21.974000;0.7883;0.1577;-0.1833;0.825
21.977000;0.8355;0.1076;-0.8346;1.186
21.979000;0.9637;0.0226;-1.2604;1.587
21.981000;0.9057;-0.1233;-1.5329;1.785
21.991000;0.6444;-0.3233;-1.9410;2.071
21.998000;0.2652;-0.5632;-2.4802;2.557
22.008000;-0.0360;-0.6494;-2.8830;2.955
22.018000;-0.3466;-0.7867;-3.0383;3.158
22.028000;-0.5319;-0.8608;-3.1994;3.356
22.079000;-0.6817;-0.6594;-3.4386;3.567
22.081000;-0.7209;-0.2804;-3.6051;3.687
22.083000;-0.6207;0.0210;-3.6887;3.741
22.084000;-0.4730;0.2361;-3.7395;3.777
22.085000;-0.3229;0.3829;-3.0033;3.045
22.089000;-0.0271;0.5590;-2.7303;2.787
22.098000;-0.1004;0.5178;-2.5603;2.614
22.113000;-0.2679;0.3835;-2.4953;2.539
22.118000;-0.2842;0.2614;-2.3907;2.422
22.179000;-0.2864;0.1476;-2.0494;2.075
22.181000;-0.2986;-0.0084;-1.6472;1.674
22.181000;-0.3469;-0.2468;-1.0473;1.131
22.182000;-0.2172;-0.3735;-0.7376;0.855
22.184000;-0.0974;-0.3457;-0.7727;0.852
22.185000;-0.0187;-0.2648;-0.7929;0.836
22.188000;0.2060;-0.1356;-0.6734;0.717
22.198000;0.5113;0.0797;-0.3389;0.619
22.213000;0.7870;0.2589;0.2681;0.871
22.218000;0.9969;0.2370;1.0551;1.471
22.260000;1.1594;0.0848;1.6770;2.041
22.262000;1.0735;-0.1931;1.9841;2.264
22.263000;0.8332;-0.5226;2.2033;2.413
22.265000;0.5405;-0.8668;2.3772;2.587
22.268000;0.2214;-1.1324;1.8557;2.185
22.278000;-0.2228;-1.1124;0.7876;1.381
22.288000;-0.6298;-0.9248;-0.0410;1.120
22.298000;-0.7978;-0.6689;-0.0835;1.044
22.313000;-0.7198;-0.3897;0.4520;0.935
22.318000;-0.5487;-0.2342;1.4945;1.609
22.384000;-0.1553;-0.1997;2.6617;2.674
22.386000;0.4024;-0.2642;4.0827;4.111
22.389000;0.6031;-0.6455;5.3399;5.412
22.391000;0.7659;-1.0363;5.7828;5.925
22.392000;0.4728;-1.1657;5.6371;5.776
22.394000;0.2450;-1.0460;4.5272;4.653
22.395000;0.1706;-0.7349;3.4566;3.538
22.399000;0.3572;-0.4426;2.7910;2.848
22.409000;0.5456;-0.3817;2.5348;2.621
22.418000;0.3251;-0.6930;2.6234;2.733
22.431000;0.0018;-1.0910;2.4411;2.674
22.438000;-0.4645;-1.4222;1.9478;2.456
22.481000;-0.6638;-1.3981;1.4350;2.111
22.482000;-0.6265;-1.2228;0.9810;1.688
22.484000;-0.6261;-1.1108;0.4377;1.348
22.484000;-0.7379;-1.0178;-0.1117;1.262
22.488000;-0.8423;-0.9119;-0.5819;1.371
22.498000;-0.6591;-0.7940;-1.1962;1.580
22.513000;-0.4128;-0.5825;-1.9465;2.073
22.518000;-0.2646;-0.3484;-2.3788;2.419
22.561000;-0.3522;-0.1982;-2.6243;2.655
22.563000;-0.3846;-0.2941;-2.6829;2.726
22.565000;-0.2322;-0.2202;-2.2733;2.296
22.566000;-0.2048;-0.1599;-2.1205;2.136
22.568000;-0.4642;-0.3594;-2.0882;2.169
22.578000;-0.6294;-0.7125;-1.7898;2.027
22.589000;-0.6809;-0.9939;-1.5884;1.994
22.598000;-0.7275;-1.1279;-1.5584;2.057
22.612000;-0.6662;-1.1878;-1.7392;2.209
22.617000;-0.5258;-1.0677;-2.0173;2.342
22.652000;-0.4166;-0.9057;-2.3036;2.510
22.654000;-0.2337;-0.7389;-2.5988;2.712
22.656000;-0.0264;-0.5469;-2.6693;2.725
22.658000;0.0382;-0.5122;-2.4094;2.464
22.668000;0.0212;-0.6522;-2.0433;2.145
22.678000;-0.0032;-0.9208;-1.4062;1.681
22.687000;0.0508;-1.0552;-0.7903;1.319
22.697000;0.0020;-1.1460;-0.3195;1.190
22.712000;0.0170;-1.1679;0.1006;1.172
22.717000;0.0830;-1.1141;0.3407;1.168
22.769000;0.0575;-1.0041;0.1506;1.017
22.771000;-0.0322;-0.8475;-0.0664;0.851
22.772000;0.3200;-0.1695;-0.3891;0.532
22.773000;0.6420;0.3107;-0.3047;0.776
22.774000;1.0208;0.8125;-0.2756;1.333
22.779000;1.3717;1.0911;-0.4703;1.815
22.787000;1.4628;1.1417;-0.4614;1.912
22.797000;1.6677;1.2996;-0.3509;2.143
22.812000;1.8899;1.4395;-0.0765;2.377
22.817000;2.0404;1.2820;0.2830;2.426
22.861000;2.0314;0.9524;0.7620;2.369
22.864000;1.7161;0.4041;1.0542;2.054
22.865000;1.2106;-0.2700;1.1796;1.712
22.866000;0.5335;-0.8637;1.2908;1.642
22.868000;-0.0386;-1.2286;1.2346;1.742
22.879000;-0.2095;-1.3515;1.1174;1.766
22.888000;-0.0430;-1.1581;0.8419;1.432
22.898000;0.4379;-0.5278;0.8524;1.094
22.912000;0.8858;0.2031;1.0252;1.370
22.917000;1.2507;0.7192;1.3949;2.007
22.983000;1.5370;0.9452;1.7429;2.509
22.985000;1.4940;0.7381;1.9115;2.536
22.986000;1.3000;0.1836;1.9565;2.356
22.988000;1.0375;-0.4602;2.3022;2.567
22.989000;0.7019;-1.1238;2.7777;3.077
22.991000;0.4161;-1.7588;3.1607;3.641
22.992000;0.2655;-1.8884;3.4092;3.906
22.998000;0.6009;-1.3291;3.3031;3.611
23.013000;0.8152;-0.6756;2.7779;2.973
23.018000;1.0570;-0.0899;2.1908;2.434
23.062000;1.1137;0.2867;1.7265;2.074
23.064000;0.3628;0.4131;1.1392;1.265
23.065000;-0.1471;0.1732;1.1370;1.159
23.068000;-0.5956;-0.2363;1.3169;1.464
23.078000;-1.4300;-1.0958;1.1080;2.115
23.088000;-1.4552;-1.2220;0.4844;1.961
23.098000;-1.3859;-0.9315;-0.2418;1.687
23.113000;-0.9763;-0.3147;-0.8312;1.320
23.119000;-0.4565;0.1161;-1.3013;1.384
23.182000;0.2944;0.3628;-1.4918;1.563
23.184000;1.2229;0.7628;-1.6594;2.198
23.186000;1.9167;1.1938;-2.0716;3.064
23.187000;1.8383;1.3897;-2.4656;3.375
23.188000;2.8288;1.5522;-2.4687;4.063
23.191000;-21.6434;-5.3801;7.9744;23.685
23.193000;-6.8416;-2.1766;5.3455;8.951
23.198000;22.1953;3.3266;-7.0937;23.538
23.214000;14.3132;-0.1971;-4.0473;14.876
23.224000;9.5378;0.4159;-4.9595;10.758
23.262000;6.3304;1.5645;-4.7974;8.095
23.264000;5.1371;2.4263;-4.9481;7.534
23.266000;4.0805;1.2011;-4.3708;6.099
23.267000;2.8872;-0.7409;-3.0571;4.270
23.269000;1.3748;-3.0081;-1.9935;3.862
23.278000;-0.5443;-4.3404;-0.5895;4.414
23.288000;-1.0218;-2.8970;-0.8760;3.194
23.298000;-2.6792;-3.3545;-0.6628;4.344
23.313000;-3.8380;-3.1973;0.4100;5.012
23.318000;-4.8241;-3.1766;-2.6171;6.341
23.393000;-4.0101;6.3275;-22.4289;23.647
23.396000;-8.5525;7.6820;-20.5169;23.518
23.397000;-7.4164;-1.8046;1.3252;7.747
23.398000;-4.5762;-6.8678;14.7261;16.881
23.398000;-3.2880;-5.5571;8.6539;10.797
23.399000;4.2767;4.7949;32.9647;33.585
23.399000;-3.4130;4.3293;37.8722;38.271
23.400000;-6.6962;-5.7605;26.8537;28.269
23.411000;-3.7707;-10.9301;-12.0680;16.713
23.417000;-0.6201;-9.9678;-35.3349;36.719
23.567000;2.9708;-4.0570;-37.3041;37.641
23.569000;5.4799;2.2469;-34.1892;34.698
23.571000;8.7743;6.1842;-18.1780;21.111
23.572000;6.1036;4.1120;-7.1407;10.254
23.572000;1.5570;0.0670;-0.2371;1.576
23.572000;-1.8487;-2.8048;1.3479;3.620
23.572000;-4.7864;-4.3659;-1.2773;6.603
23.573000;-8.1826;-5.0266;-7.5358;12.207
23.573000;-8.2137;-4.0235;-5.1799;10.511
23.573000;-8.5322;-2.6648;-4.2869;9.913
23.574000;-8.0557;-1.4784;-3.0012;8.723
23.574000;-6.3247;-0.2861;0.1580;6.333
23.574000;-4.3256;0.0012;2.5677;5.030
23.575000;-3.7078;-1.2474;1.7501;4.286
23.575000;-4.2205;-3.2929;-1.9693;5.704
23.577000;-2.8729;-4.0035;-0.5521;4.958
23.587000;0.3532;-3.6143;2.8932;4.643
23.597000;1.4078;-2.9690;9.9663;10.494
23.613000;2.1641;-0.8207;16.0546;16.221
23.618000;2.5452;0.1791;13.6576;13.894
23.658000;3.0764;-0.5602;10.5830;11.035
23.660000;2.7589;-1.0951;6.7370;7.362
23.661000;1.4216;-0.9957;4.6352;4.949
23.661000;-0.2914;-1.3600;5.1206;5.306
23.670000;-0.9628;-1.8086;5.2573;5.642
23.682000;-1.6095;-2.3928;5.9761;6.635
23.687000;-2.5634;-2.5533;6.4952;7.435
23.704000;-3.1793;-2.6113;5.5002;6.869
23.709000;-3.9807;-2.8451;3.9249;6.273
23.717000;-4.5207;-2.9292;2.3956;5.895
23.729000;-4.6704;-2.8098;2.2831;5.909
23.737000;-4.3598;-2.7932;1.6552;5.436
23.788000;-2.4915;-1.8759;0.5912;3.174
23.789000;-1.8740;-1.6555;0.5718;2.565
23.790000;-1.7737;-1.7578;0.4468;2.537
23.791000;-1.8274;-1.8356;0.5230;2.642
23.791000;-1.9729;-1.7330;1.1376;2.862
23.797000;-2.1167;-1.3946;1.4635;2.927
23.809000;-2.1415;-1.2849;0.7316;2.602
23.817000;-2.0445;-1.5006;0.2830;2.552
23.830000;-2.1021;-1.6672;0.3234;2.702
23.837000;-2.8091;-1.5484;2.0173;3.789
23.889000;-3.5904;-2.4414;0.9986;4.455
23.890000;-3.7737;-3.1931;-1.1285;5.071
23.890000;-3.2159;-3.1339;-2.4088;5.096
23.891000;-5.2588;-6.0217;-1.4926;8.133
23.891000;-3.8925;-5.4027;-3.7307;7.633
23.901000;-1.1965;-2.2770;-4.9522;5.580
23.907000;-0.1270;-0.0131;-4.9032;4.905
23.918000;-1.2751;0.2418;-2.5994;2.905
23.958000;-2.0125;0.4553;-0.1813;2.071
23.959000;-2.3529;-0.2881;-0.8417;2.515
23.960000;-2.2175;-1.3184;-3.1560;4.076
23.960000;-0.7901;-1.0932;-5.9775;6.128
23.968000;-0.0133;-0.8844;-9.6355;9.676
23.978000;3.6007;1.2878;-7.1720;8.128
23.988000;6.3265;2.6185;-2.0923;7.159
23.998000;8.8546;1.8665;4.4781;10.097
24.008000;12.5475;1.5107;14.7098;19.393
24.018000;9.5671;1.1496;12.3492;15.664
24.062000;3.8649;-0.7481;8.3953;9.272
24.064000;2.1797;-1.6574;7.4187;7.908
24.066000;0.8255;-2.1266;8.4357;8.739
24.067000;-0.1975;-2.4473;9.5199;9.831
24.068000;-3.0949;-3.1692;9.3168;10.316
24.077000;-5.1513;-2.6441;4.6954;7.455
24.087000;-4.2353;-2.0897;1.4937;4.953
24.098000;-2.3509;-1.8547;-5.3565;6.137
24.107000;-0.7609;-0.3854;-6.6672;6.722
24.118000;7.5107;3.1429;-0.6716;8.169
24.160000;3.0604;2.7717;-6.7098;7.878
24.161000;1.0730;1.9137;-4.7854;5.264
24.162000;0.0372;1.3029;0.9498;1.613
24.162000;-0.2322;0.3770;4.9745;4.994
24.167000;0.0255;-0.7006;4.1442;4.203
24.177000;-0.7413;-1.1562;1.7347;2.213
24.188000;-1.9633;-0.9845;0.0406;2.197
24.197000;-2.7943;-0.6873;-0.4014;2.906
24.208000;-2.8032;-0.6179;-0.4573;2.907
24.224000;-2.1952;-0.4947;-0.5250;2.311
24.285000;-1.4781;-0.3812;-0.4011;1.578
24.287000;-0.8760;-0.0665;-0.0728;0.882
24.288000;-0.4256;0.1930;0.1521;0.491
24.289000;-0.2384;0.2909;0.2765;0.467
24.290000;-0.2176;0.3175;0.5696;0.687
24.292000;-0.3048;0.2898;1.0136;1.097
24.293000;-0.5055;0.0926;1.1972;1.303
24.298000;-0.8240;-0.1855;0.8792;1.219
24.309000;-1.0895;-0.4279;0.3566;1.224
24.318000;-1.2374;-0.5979;-0.2013;1.389
24.331000;-1.3275;-0.7113;-0.5136;1.591
24.337000;-1.3514;-0.8042;-0.6536;1.703
24.348000;-1.3208;-0.8222;-0.7462;1.725
24.358000;-1.1159;-0.6638;-0.8317;1.542
24.398000;-0.9652;-0.4404;-0.8611;1.366
24.400000;-0.8562;-0.2316;-0.7612;1.169
24.401000;-0.8589;-0.1020;-0.6655;1.091
24.402000;-1.0161;-0.1385;-0.5403;1.159
24.408000;-1.1509;-0.2274;-0.1800;1.187
24.418000;-0.9327;-0.2971;-0.2102;1.001
24.433000;-0.6798;-0.3133;-0.3603;0.831
24.438000;-0.8183;-0.4853;-0.7654;1.221
24.487000;-1.2336;-0.6054;-2.0222;2.445
24.488000;-0.9905;-0.2225;-1.8724;2.130
24.489000;-1.0852;0.0625;-1.2518;1.658
24.489000;-0.8983;0.0790;-0.6779;1.128
24.490000;-0.6611;-0.0716;0.2828;0.723
24.500000;-0.5244;-0.3246;0.8079;1.016
24.507000;-0.9234;-0.3305;0.8929;1.326
24.517000;-1.1841;-0.0844;0.9020;1.491
24.528000;-1.3040;-0.0854;0.2040;1.323
24.537000;-1.1995;-0.2365;-0.4234;1.294
24.564000;-0.9613;-0.3873;-0.8175;1.320
24.565000;-0.9207;-0.3718;-0.8165;1.286
