time;ax;ay;az;aT
0.004000;0.0258;0.1527;-0.0602;0.166
0.004000;-0.0241;0.0496;0.4386;0.442
0.021000;0.0134;0.0076;0.7388;0.739
0.022000;0.1369;-0.0558;0.9258;0.938
0.031000;0.3314;-0.0935;0.9156;0.978
0.042000;0.1224;-0.0762;0.9319;0.943
0.060000;-0.0037;-0.0413;0.5918;0.593
0.061000;-0.0041;0.1472;0.3969;0.423
0.077000;-0.1564;0.1152;0.2607;0.325
0.081000;-0.0973;0.1195;0.0288;0.157
0.095000;-0.1895;0.1004;0.0317;0.217
0.102000;-0.1706;0.0744;0.0060;0.186
0.111000;-0.0613;0.1676;0.1249;0.218
0.139000;-0.0299;0.1436;0.2127;0.258
0.140000;-0.0049;0.1457;0.2859;0.321
0.149000;-0.0118;0.1419;0.2730;0.308
0.159000;-0.0325;0.1496;0.1823;0.238
0.161000;-0.0704;0.1448;0.1839;0.244
0.178000;-0.0465;0.1278;0.1771;0.223
0.181000;-0.0300;0.1032;0.1849;0.214
0.195000;-0.0363;0.0989;-0.0227;0.108
0.247000;0.0142;0.0513;-0.0949;0.109
0.248000;0.1472;0.0334;0.0206;0.152
0.248000;0.2961;0.0779;0.2139;0.374
0.248000;0.2926;0.0843;0.2669;0.405
0.248000;0.2105;0.0085;0.3287;0.390
0.257000;0.1557;-0.0317;0.3163;0.354
0.267000;0.1100;-0.0349;0.2179;0.247
0.271000;0.0458;-0.0198;0.1032;0.115
0.281000;0.0137;-0.0353;0.0066;0.038
0.292000;0.0265;-0.0286;0.0527;0.066
0.325000;0.0303;-0.0410;0.1310;0.141
0.326000;-0.0218;-0.0445;0.1784;0.185
0.326000;-0.0301;-0.0459;0.1480;0.158
0.332000;-0.0457;-0.0625;0.0877;0.117
0.342000;-0.0532;-0.0698;0.0047;0.088
0.359000;-0.0729;-0.0571;0.0017;0.093
0.361000;-0.0856;-0.0263;0.0452;0.100
0.378000;-0.0913;-0.0151;0.0647;0.113
0.381000;-0.0922;-0.0232;0.0783;0.123
0.396000;-0.0218;0.0063;0.1146;0.117
0.442000;-0.0046;0.0093;0.0635;0.064
0.443000;-0.0329;0.0087;0.0257;0.043
0.443000;-0.0096;0.0444;0.0119;0.047
0.444000;0.0316;0.0979;-0.0104;0.103
0.444000;0.0275;0.1397;-0.0794;0.163
0.452000;-0.0293;0.1448;-0.2048;0.253
0.463000;-0.1558;0.1188;-0.3066;0.364
0.471000;-0.2414;0.1488;-0.3047;0.416
0.481000;-0.2712;0.2370;-0.2254;0.425
0.495000;-0.2769;0.2266;-0.2533;0.438
0.502000;-0.0816;0.1916;0.0058;0.208
0.511000;-0.1092;0.1982;0.0032;0.226
0.535000;0.0576;0.2354;0.4158;0.481
0.536000;0.3293;0.2585;1.1181;1.194
0.546000;0.3792;0.2024;1.1075;1.188
0.561000;0.3275;0.1867;0.9262;1.000
0.562000;0.1824;0.2380;0.6439;0.710
0.578000;0.1139;0.3104;0.3384;0.473
0.581000;0.0878;0.3478;0.1672;0.396
0.595000;0.1424;0.3525;0.1121;0.396
0.604000;0.2366;0.4343;0.2413;0.550
0.612000;0.2434;0.3870;0.4253;0.624
0.639000;0.2158;0.2818;0.5326;0.640
0.640000;0.1551;0.1772;0.5956;0.640
0.642000;0.0855;0.1713;0.6971;0.723
0.654000;0.0508;0.1640;0.8336;0.851
0.661000;0.0545;0.1596;0.8038;0.821
0.672000;0.0374;0.1267;0.6343;0.648
0.681000;0.0051;0.0808;0.4087;0.417
0.698000;-0.0548;0.0584;0.1941;0.210
0.704000;-0.0585;0.0560;0.0250;0.085
0.711000;-0.0476;0.0655;-0.2183;0.233
0.742000;-0.0307;0.0410;-0.3814;0.385
0.743000;0.0156;-0.0172;-0.4322;0.433
0.744000;0.0503;-0.0534;-0.3456;0.353
0.753000;0.0711;-0.0753;-0.1551;0.186
0.761000;0.0863;-0.0846;0.0423;0.128
0.771000;0.1010;-0.1580;0.2766;0.334
0.781000;0.1350;-0.1996;0.3530;0.427
0.796000;0.1678;-0.2760;0.3792;0.498
0.804000;0.1834;-0.3303;0.2931;0.478
0.811000;0.1674;-0.3111;0.1785;0.396
0.857000;0.1640;-0.2701;0.0735;0.324
0.858000;0.1144;-0.2685;-0.0338;0.294
0.859000;0.0815;-0.2696;-0.0730;0.291
0.860000;0.1101;-0.2405;-0.0680;0.273
0.862000;0.0349;-0.1903;-0.0343;0.196
0.872000;-0.0314;-0.1791;-0.0592;0.191
0.881000;-0.0460;-0.1852;-0.1045;0.218
0.892000;-0.0138;-0.1898;-0.1078;0.219
0.931000;0.0146;-0.2014;-0.1579;0.256
0.933000;0.0012;-0.2115;-0.2333;0.315
0.934000;-0.0301;-0.1829;-0.2082;0.279
0.936000;-0.0682;-0.0924;-0.0503;0.125
0.941000;-0.1377;-0.0760;0.0692;0.172
0.954000;-0.1697;-0.0905;0.1684;0.256
0.961000;-0.1979;-0.0684;0.2114;0.298
0.971000;-0.2362;-0.0108;0.1349;0.272
0.981000;-0.2157;0.0154;-0.0110;0.216
0.992000;-0.1730;0.0321;-0.0277;0.178
1.049000;-0.0236;0.0393;0.1492;0.156
1.051000;0.1333;0.0486;0.3570;0.384
1.052000;0.2003;0.0493;0.4797;0.522
1.054000;0.1475;0.0177;0.4410;0.465
1.055000;0.0134;-0.0131;0.2505;0.251
1.056000;-0.0581;-0.0245;0.1201;0.136
1.061000;-0.0057;-0.0145;0.0951;0.096
1.071000;0.0713;-0.0008;0.1108;0.132
1.081000;0.1035;-0.0189;0.1348;0.171
1.093000;0.1000;-0.0322;0.1109;0.153
1.101000;0.0959;0.0028;0.1216;0.155
1.130000;0.0861;0.0422;0.1322;0.163
1.132000;0.0592;0.0595;0.1630;0.183
1.132000;0.0001;0.0599;0.1903;0.199
1.141000;-0.1039;0.0058;0.2307;0.253
1.151000;0.0276;0.0748;0.2388;0.252
1.161000;0.0275;0.0464;0.1657;0.174
1.174000;0.0384;0.0405;0.0160;0.058
1.181000;0.0298;-0.0017;-0.1229;0.126
1.207000;-0.0162;0.0456;-0.0584;0.076
1.208000;-0.0627;0.0469;0.0564;0.097
1.211000;-0.1173;0.0732;0.1867;0.232
1.221000;-0.1457;0.1008;0.3398;0.383
1.231000;-0.1428;0.1015;0.4631;0.495
1.241000;-0.0552;0.0802;0.4620;0.472
1.253000;0.0218;0.0655;0.3870;0.393
1.261000;0.0434;0.1301;0.3037;0.333
1.272000;0.0470;0.1727;0.2278;0.290
1.281000;0.0544;0.1567;0.1065;0.197
1.292000;0.0529;0.1534;0.0175;0.163
1.301000;0.0209;0.1862;-0.0032;0.187
1.313000;-0.0589;0.1993;0.1111;0.236
1.363000;-0.0950;0.1981;0.2242;0.314
1.365000;-0.1100;0.1963;0.2582;0.342
1.366000;-0.1472;0.1673;0.2216;0.314
1.368000;-0.1463;0.1763;0.2498;0.339
1.369000;-0.1215;0.2033;0.3068;0.388
1.375000;-0.0839;0.2106;0.3136;0.387
1.381000;-0.0675;0.1913;0.3217;0.380
1.392000;-0.0591;0.1746;0.3215;0.371
1.401000;-0.0240;0.1399;0.3621;0.389
1.426000;-0.0057;0.1277;0.4398;0.458
1.427000;-0.0333;0.1473;0.5486;0.569
1.431000;-0.0819;0.1710;0.7855;0.808
1.441000;-0.1106;0.2053;0.9305;0.959
1.451000;-0.1044;0.1804;0.9550;0.977
1.461000;-0.0851;0.1646;0.8985;0.917
1.474000;-0.0548;0.1089;0.8173;0.826
1.482000;0.0106;0.1445;0.7292;0.743
1.523000;0.0644;0.0996;0.6545;0.665
1.525000;0.1280;0.1080;0.4316;0.463
1.526000;0.1123;0.1717;0.2471;0.321
1.527000;0.0733;0.2386;-0.1349;0.284
1.531000;-0.1003;0.0521;-0.3927;0.409
1.541000;0.0116;0.1339;-0.5298;0.547
1.551000;-0.0065;0.1009;-0.5477;0.557
1.561000;-0.0889;0.0244;-0.4764;0.485
1.576000;-0.1505;0.0437;-0.2656;0.308
1.581000;-0.2080;0.1036;0.0152;0.233
1.616000;-0.1810;0.1475;0.2262;0.325
1.617000;-0.1428;0.1269;0.2229;0.294
1.618000;-0.0873;0.1073;0.0617;0.152
1.625000;0.0549;0.0347;-0.0815;0.104
1.631000;0.1271;-0.0399;-0.0262;0.136
1.641000;0.1829;-0.0619;0.1794;0.264
1.652000;0.2009;-0.1230;0.2838;0.369
1.661000;0.1936;-0.1634;-0.1185;0.280
1.676000;0.0558;-0.1553;-0.3377;0.376
1.681000;0.1167;-0.0705;-0.1102;0.175
1.716000;0.1620;0.0836;-0.0327;0.185
1.717000;-0.0002;0.0874;0.0174;0.089
1.718000;-0.0490;-0.0643;-0.1020;0.130
1.725000;0.1113;-0.1294;-0.3093;0.353
1.731000;0.2299;-0.1549;-0.5483;0.614
1.741000;0.1518;-0.1736;-0.7279;0.764
1.752000;0.0574;-0.1336;-0.6822;0.698
1.761000;-0.0536;-0.1255;-0.5169;0.535
1.779000;-0.1381;-0.0480;-0.3539;0.383
1.782000;-0.2134;-0.0466;-0.1494;0.265
1.826000;-0.1972;-0.0707;0.0105;0.210
1.828000;-0.1972;-0.1174;0.1356;0.267
1.829000;-0.2000;-0.1633;0.1411;0.294
1.829000;-0.2004;-0.2197;0.1252;0.323
1.831000;-0.1586;-0.2308;0.1407;0.313
1.841000;-0.1073;-0.1881;0.0835;0.232
1.851000;0.1304;-0.0944;-0.1411;0.214
1.861000;-0.0790;-0.1474;-0.1009;0.195
1.875000;0.0398;-0.0514;-0.2246;0.234
1.881000;0.0750;-0.0707;-0.0697;0.124
1.911000;0.0095;-0.0726;0.1507;0.168
1.913000;0.1188;-0.0192;0.2439;0.272
1.914000;0.1630;-0.0419;0.2030;0.264
1.922000;0.1687;-0.0354;0.0617;0.183
1.931000;0.1749;-0.0495;-0.0889;0.202
1.942000;0.1910;-0.0398;-0.2334;0.304
1.951000;0.2173;-0.0496;-0.3168;0.387
1.961000;0.2563;-0.0781;-0.3383;0.432
1.975000;0.2323;-0.1066;-0.2224;0.339
1.983000;0.2498;-0.0344;0.0177;0.253
2.032000;0.2453;0.0759;0.2541;0.361
2.033000;0.2278;0.1392;0.3946;0.476
2.034000;0.2310;0.1043;0.4142;0.486
2.036000;0.2350;0.0778;0.3895;0.462
2.037000;0.2356;0.1160;0.3902;0.470
2.042000;0.1776;0.1294;0.3601;0.422
2.051000;0.1244;0.0961;0.3230;0.359
2.062000;0.1472;0.1218;0.2969;0.353
2.072000;0.1304;0.1634;0.2852;0.354
2.081000;0.0592;0.1577;0.2510;0.302
2.091000;-0.0087;0.1302;0.2240;0.259
2.101000;-0.0529;0.1261;0.2267;0.265
2.146000;-0.0534;0.1612;0.2844;0.331
2.147000;-0.0488;0.1594;0.3174;0.359
2.148000;-0.0799;0.1286;0.3196;0.354
2.156000;-0.0894;0.1314;0.4301;0.458
2.166000;-0.0803;0.1554;0.6495;0.673
2.181000;-0.0290;0.1603;0.8069;0.823
2.182000;0.0530;0.1745;0.6604;0.685
2.198000;0.0596;0.1094;0.4590;0.476
2.201000;0.0682;0.1125;0.2289;0.264
2.253000;0.0947;0.1407;0.1376;0.218
2.254000;0.1244;0.1636;0.1156;0.236
2.255000;0.0885;0.1153;0.1378;0.200
2.256000;0.0293;0.0531;0.1623;0.173
2.257000;-0.0447;0.0464;0.1411;0.155
2.261000;-0.0900;0.0190;0.1128;0.146
2.277000;-0.1255;0.0444;0.1265;0.184
2.281000;-0.1743;0.0302;0.2084;0.273
2.323000;-0.1396;-0.0025;0.3860;0.410
2.324000;-0.1044;-0.0334;0.5526;0.563
2.325000;-0.0633;-0.0709;0.6510;0.658
2.326000;-0.0678;-0.0658;0.6056;0.613
2.333000;-0.1344;-0.0222;0.4887;0.507
2.346000;-0.1905;0.0067;0.2928;0.349
2.351000;-0.2319;0.0154;0.1545;0.279
2.365000;-0.2042;0.0155;0.0678;0.216
2.382000;-0.2171;-0.0015;0.0756;0.230
2.383000;-0.2438;0.0161;0.3876;0.458
2.396000;-0.1329;-0.1571;0.0437;0.210
2.401000;-0.1557;-0.1451;-0.1825;0.280
2.447000;-0.0964;-0.0213;0.0439;0.108
2.449000;-0.0694;-0.0365;0.0884;0.118
2.449000;-0.0334;-0.0310;0.1977;0.203
2.450000;0.0352;-0.0202;0.2758;0.279
2.451000;0.0592;0.0061;0.3288;0.334
2.461000;0.0306;0.0147;0.2657;0.268
2.476000;-0.0102;-0.0091;0.1727;0.173
2.481000;0.0153;-0.0289;-0.0232;0.040
2.510000;-0.0959;-0.1324;-0.0457;0.170
2.511000;-0.1496;-0.1872;-0.0767;0.252
2.512000;-0.0436;-0.0825;-0.0347;0.100
2.522000;-0.1037;-0.2490;0.1065;0.290
2.531000;0.0946;-0.1324;0.0727;0.178
2.542000;0.0960;-0.1448;0.1620;0.238
2.551000;0.0873;-0.1573;0.1889;0.261
2.561000;0.1657;-0.1750;0.0612;0.249
2.577000;0.1047;-0.1735;-0.1024;0.227
2.581000;0.0870;-0.0937;-0.0447;0.135
2.628000;0.0632;-0.1181;-0.0923;0.163
2.629000;-0.0392;-0.1833;-0.1339;0.230
2.630000;-0.1637;-0.1704;-0.2029;0.311
2.631000;-0.2874;-0.2327;-0.2527;0.448
2.632000;-0.1332;-0.2081;-0.2331;0.340
2.641000;-0.0310;-0.0913;-0.1980;0.220
2.651000;-0.0661;-0.1010;-0.1292;0.177
2.661000;-0.0858;-0.0527;-0.0218;0.103
2.678000;-0.1137;-0.0153;0.1157;0.163
2.682000;-0.0539;0.0383;0.2138;0.224
2.731000;-0.0210;0.0520;0.3073;0.312
2.733000;-0.0056;0.0550;0.3794;0.383
2.734000;0.0701;0.0514;0.3044;0.317
2.734000;0.0840;0.1106;0.3036;0.334
2.735000;0.0996;0.1583;0.3806;0.424
2.742000;0.0710;0.1327;0.4050;0.432
2.751000;0.0641;0.0933;0.3802;0.397
2.761000;0.0781;0.0986;0.3554;0.377
2.779000;0.0910;0.0480;0.3580;0.373
2.783000;0.0688;0.0171;0.3390;0.346
2.822000;0.0201;0.0391;0.3727;0.375
2.823000;0.0184;0.0642;0.3990;0.405
2.824000;0.0187;0.0402;0.3690;0.372
2.824000;0.0215;0.0387;0.3665;0.369
2.831000;0.0182;0.1047;0.3556;0.371
2.841000;0.0306;0.1513;0.2849;0.324
2.852000;-0.0878;0.1093;0.1484;0.204
2.863000;-0.1093;0.0831;0.1652;0.215
2.881000;-0.0745;0.0706;0.2216;0.244
2.885000;-0.0898;0.0550;0.2360;0.258
2.941000;-0.0854;0.0400;0.2027;0.224
2.942000;-0.0789;0.0590;0.1909;0.215
2.944000;-0.0716;0.0572;0.2127;0.232
2.944000;-0.0637;0.0699;0.2548;0.272
2.945000;-0.0703;0.0613;0.2922;0.307
2.946000;-0.0938;0.0665;0.2780;0.301
2.951000;-0.1381;0.0814;0.3070;0.346
2.961000;-0.1456;0.0478;0.3251;0.359
2.973000;-0.0799;0.0500;0.2809;0.296
2.981000;-0.0002;0.0520;0.2270;0.233
2.991000;0.0188;0.0685;0.2030;0.215
3.001000;-0.0090;0.0708;0.1766;0.190
3.012000;-0.0091;0.1010;0.2065;0.230
3.067000;-0.0144;0.1114;0.1968;0.227
3.069000;-0.0032;0.1079;0.2171;0.242
3.070000;0.0211;0.0799;0.2506;0.264
3.072000;0.0322;0.0336;0.2913;0.295
3.072000;0.0472;0.0379;0.3451;0.350
3.073000;0.0321;0.0804;0.3654;0.375
3.081000;0.0013;0.0696;0.3437;0.351
3.095000;-0.0162;0.0284;0.2442;0.246
3.101000;-0.0231;0.0076;0.1100;0.113
3.141000;-0.0227;-0.0039;-0.0073;0.024
3.142000;-0.0686;-0.0055;-0.0790;0.105
3.143000;-0.0569;-0.0247;-0.1328;0.147
3.144000;-0.0442;-0.0304;-0.2045;0.211
3.151000;-0.0499;-0.0149;-0.1493;0.158
3.161000;-0.0248;-0.0094;-0.0462;0.053
3.172000;0.0074;-0.0187;0.0438;0.048
3.181000;0.0649;-0.0362;0.1327;0.152
3.197000;0.0509;-0.0182;0.1773;0.185
3.201000;0.0359;-0.0237;0.1800;0.185
3.232000;0.0518;-0.0402;0.1600;0.173
3.234000;0.0584;-0.0497;0.1329;0.153
3.235000;0.0374;-0.0589;0.1189;0.138
3.243000;0.0430;-0.0307;0.1336;0.144
3.252000;0.0222;-0.0477;0.1686;0.177
3.262000;-0.0458;-0.0282;0.1616;0.170
3.272000;-0.1143;-0.0480;0.1594;0.202
3.281000;-0.1287;-0.0424;0.1237;0.183
3.295000;-0.1276;-0.0235;0.0125;0.130
3.302000;-0.1188;-0.0352;-0.1022;0.161
3.348000;-0.0487;-0.0260;-0.1953;0.203
3.350000;0.0330;0.0061;-0.2406;0.243
3.351000;0.0559;0.0086;-0.2967;0.302
3.352000;-0.0028;-0.0263;-0.3302;0.331
3.353000;-0.0463;-0.0245;-0.3122;0.317
3.361000;-0.0973;-0.0265;-0.2440;0.264
3.371000;-0.1561;-0.0385;-0.0752;0.177
3.381000;-0.1816;-0.0468;0.1102;0.217
3.395000;-0.1529;-0.0662;0.1962;0.257
3.401000;-0.1716;-0.0818;0.1793;0.261
3.444000;-0.1947;-0.1331;0.1278;0.268
3.446000;-0.1808;-0.1733;0.0499;0.255
3.447000;-0.1400;-0.1494;-0.0279;0.207
3.448000;-0.1484;-0.1264;-0.0507;0.201
3.451000;-0.1644;-0.0887;-0.0363;0.190
3.461000;-0.1541;-0.0125;-0.0051;0.155
3.472000;-0.1032;0.0865;0.0943;0.164
3.481000;-0.0518;0.1743;0.1675;0.247
3.495000;0.0161;0.2277;0.2610;0.347
3.501000;0.0920;0.2554;0.3857;0.472
3.532000;0.2333;0.2997;0.5509;0.669
3.533000;0.2777;0.3025;0.5544;0.690
3.534000;0.3279;0.2912;0.5447;0.699
3.541000;0.3392;0.3120;0.5240;0.698
3.551000;0.3496;0.3173;0.4744;0.669
3.561000;0.3416;0.2894;0.3732;0.583
3.571000;0.3121;0.2730;0.2600;0.489
3.581000;0.3028;0.2806;0.1217;0.430
3.594000;0.2964;0.2367;0.0134;0.380
3.601000;0.3061;0.1743;-0.0242;0.353
3.638000;0.2934;0.1459;-0.0652;0.334
3.640000;0.2765;0.1149;-0.0762;0.309
3.642000;0.2818;0.0790;-0.0177;0.293
3.643000;0.2490;0.0762;0.0780;0.272
3.651000;0.1618;0.0306;0.1235;0.206
3.661000;0.1002;0.0065;0.2409;0.261
3.672000;0.0401;0.0168;0.2973;0.300
3.681000;-0.0168;0.0168;0.3238;0.325
3.697000;-0.0817;0.0143;0.3204;0.331
3.701000;-0.1442;-0.0041;0.3124;0.344
3.727000;-0.1610;0.0080;0.3559;0.391
3.729000;-0.1580;0.0288;0.3707;0.404
3.731000;-0.1407;0.0472;0.3796;0.408
3.741000;-0.1571;0.0329;0.4350;0.464
3.751000;-0.1889;-0.0032;0.5024;0.537
3.761000;-0.2198;-0.0074;0.5361;0.579
3.773000;-0.2164;0.0053;0.5302;0.573
3.781000;-0.2127;0.0382;0.4418;0.492
3.794000;-0.2264;0.0556;0.3702;0.437
3.801000;-0.1999;0.0480;0.3248;0.384
3.834000;-0.1156;0.0491;0.2830;0.310
3.835000;-0.0535;0.0534;0.2758;0.286
3.836000;-0.0306;0.0785;0.2758;0.288
3.844000;-0.0079;0.0866;0.2517;0.266
3.851000;0.0018;0.0293;0.1773;0.180
3.861000;0.0171;0.0175;0.0681;0.072
3.871000;-0.0054;0.0199;0.0044;0.021
3.881000;-0.0037;0.0106;-0.0378;0.039
3.898000;0.0142;-0.0229;-0.0560;0.062
3.901000;0.0250;-0.0564;-0.0693;0.093
3.943000;0.0138;-0.0688;-0.0623;0.094
3.944000;0.0305;-0.0591;0.0179;0.069
3.945000;0.0303;-0.0717;0.1208;0.144
3.946000;0.0231;-0.0855;0.1292;0.157
3.952000;-0.0370;-0.0965;0.1041;0.147
3.961000;-0.0853;-0.0870;0.0696;0.140
3.971000;-0.0875;-0.0951;0.0314;0.133
3.982000;-0.0967;-0.0850;0.0208;0.130
4.001000;-0.1227;-0.0968;-0.0018;0.156
4.003000;-0.1500;-0.0791;0.0092;0.170
4.040000;-0.1527;-0.0666;0.0297;0.169
4.042000;-0.1516;-0.0573;0.0862;0.184
4.043000;-0.1654;-0.0374;0.0599;0.180
4.044000;-0.1467;-0.0305;-0.0070;0.150
4.051000;-0.1621;-0.0497;-0.1182;0.207
4.061000;-0.1573;-0.0264;-0.1827;0.243
4.071000;-0.1650;0.0136;-0.2102;0.268
4.081000;-0.1801;0.0364;-0.2341;0.298
4.096000;-0.1808;0.0274;-0.2531;0.312
4.102000;-0.2037;0.0374;-0.2433;0.320
4.150000;-0.2053;0.0287;-0.1499;0.256
4.152000;-0.1887;0.0420;-0.0996;0.217
4.153000;-0.2006;0.0490;-0.0768;0.220
4.154000;-0.2117;0.0674;-0.1247;0.255
4.154000;-0.2094;0.0878;-0.1545;0.275
4.162000;-0.1998;0.1344;-0.2024;0.314
4.171000;-0.2244;0.1372;-0.2047;0.333
4.181000;-0.2384;0.1112;-0.2212;0.344
4.196000;-0.2694;0.1023;-0.2330;0.371
4.201000;-0.2924;0.0573;-0.2003;0.359
4.241000;-0.2808;0.0347;-0.0982;0.299
4.242000;-0.2743;0.0426;0.0256;0.279
4.243000;-0.2723;0.0406;0.0643;0.283
4.244000;-0.3130;0.0300;0.0769;0.324
4.251000;-0.3156;0.0628;0.0896;0.334
4.261000;-0.2965;0.0868;0.0867;0.321
4.273000;-0.3194;0.1308;0.0252;0.346
4.282000;-0.3260;0.1919;-0.0781;0.386
4.300000;-0.2919;0.2279;-0.0988;0.383
4.303000;-0.2235;0.2459;-0.0860;0.343
4.337000;-0.1909;0.2545;-0.0720;0.326
4.339000;-0.2293;0.2645;-0.0438;0.353
4.340000;-0.2674;0.2527;0.0228;0.369
4.342000;-0.2982;0.2407;0.1121;0.399
4.351000;-0.3010;0.2182;0.2314;0.438
4.361000;-0.2720;0.2148;0.3413;0.486
4.371000;-0.2452;0.2107;0.4620;0.564
4.381000;-0.2180;0.2245;0.5515;0.634
4.396000;-0.2194;0.2575;0.6100;0.698
4.401000;-0.1884;0.3272;0.6410;0.744
4.430000;-0.1413;0.3316;0.6360;0.731
4.432000;-0.0861;0.3094;0.6428;0.719
4.433000;-0.0479;0.2832;0.6817;0.740
4.442000;-0.0195;0.2623;0.7359;0.781
4.451000;0.0015;0.2584;0.8316;0.871
4.461000;0.0230;0.2355;0.9008;0.931
4.471000;0.0769;0.2043;0.9028;0.929
4.482000;0.1158;0.2136;0.8256;0.861
4.503000;0.2007;0.2116;0.7004;0.759
4.506000;0.2791;0.2246;0.2794;0.454
4.542000;0.3614;0.2013;0.0988;0.425
4.544000;0.3563;0.1617;0.0331;0.393
4.545000;0.3552;0.1189;0.0403;0.377
4.546000;0.4146;0.1033;0.0965;0.438
4.551000;0.4307;0.0017;0.2521;0.499
4.562000;0.4870;-0.0192;0.3347;0.591
4.571000;0.4946;-0.1009;0.3732;0.628
4.581000;0.5039;-0.1847;0.4299;0.688
4.597000;0.5410;-0.2278;0.4937;0.767
4.601000;0.5449;-0.2266;0.6019;0.843
4.640000;0.5326;-0.1843;0.7172;0.912
4.642000;0.5174;-0.1065;0.7643;0.929
4.643000;0.5535;-0.0054;0.7622;0.942
4.644000;0.5896;0.0911;0.6955;0.916
4.651000;0.6512;0.1640;0.5006;0.838
4.662000;0.7052;0.2480;0.2601;0.791
4.671000;0.7463;0.3232;0.0123;0.813
4.682000;0.7846;0.4086;-0.1949;0.906
4.704000;0.7855;0.4892;-0.3736;0.998
4.706000;0.8071;0.5203;-0.5296;1.097
4.741000;0.8416;0.5231;-0.6748;1.199
4.743000;0.8414;0.4767;-0.7493;1.223
4.744000;0.8170;0.4024;-0.7303;1.167
4.745000;0.8279;0.3862;-0.6681;1.132
4.751000;0.8188;0.3960;-0.6225;1.102
4.762000;0.7129;0.3995;-0.6473;1.042
4.771000;0.5768;0.3926;-0.7856;1.051
4.781000;0.4214;0.3741;-0.9847;1.135
4.797000;0.2956;0.3320;-1.1226;1.207
4.801000;0.2220;0.2690;-1.1310;1.184
4.850000;0.1915;0.2177;-0.9730;1.015
4.852000;0.1795;0.2086;-0.7023;0.754
4.853000;0.1221;0.2289;-0.4136;0.488
4.854000;0.0416;0.2925;-0.0470;0.299
4.855000;-0.0346;0.2812;0.0982;0.300
4.861000;-0.0755;0.2911;0.1908;0.356
4.871000;-0.1771;0.3118;0.2810;0.456
4.881000;-0.2474;0.2564;0.3271;0.484
4.898000;-0.3176;0.1912;0.3433;0.505
4.902000;-0.3693;0.2269;0.3571;0.562
4.935000;-0.4493;0.3103;0.4033;0.679
4.937000;-0.5584;0.3467;0.4938;0.822
4.938000;-0.6582;0.3855;0.5735;0.954
4.946000;-0.6879;0.4242;0.5921;1.002
4.951000;-0.7483;0.4471;0.5820;1.048
4.962000;-0.8104;0.4780;0.5669;1.098
4.971000;-0.8214;0.4967;0.5003;1.082
4.981000;-0.8345;0.5508;0.4455;1.095
4.997000;-0.8408;0.5933;0.4289;1.115
5.002000;-0.8064;0.6391;0.3860;1.099
5.037000;-0.7464;0.6520;0.3274;1.044
5.038000;-0.7048;0.6784;0.3526;1.040
5.038000;-0.7116;0.6371;0.3322;1.011
5.041000;-0.6724;0.6092;0.3166;0.961
5.051000;-0.6425;0.5671;0.3332;0.920
5.061000;-0.5823;0.5584;0.3966;0.899
5.071000;-0.5049;0.5812;0.4335;0.884
5.081000;-0.4358;0.6035;0.4298;0.860
5.098000;-0.4087;0.6009;0.4046;0.832
5.102000;-0.3812;0.5937;0.3304;0.779
5.134000;-0.3431;0.5980;0.2394;0.730
5.135000;-0.3337;0.5950;0.1857;0.707
5.136000;-0.3128;0.6020;0.2182;0.713
5.143000;-0.2928;0.6424;0.2687;0.755
5.151000;-0.2260;0.7100;0.2918;0.800
5.162000;-0.1817;0.7259;0.2683;0.795
5.171000;-0.0880;0.7759;0.0628;0.783
5.181000;0.0076;0.8491;-0.0111;0.849
5.197000;0.0925;0.8946;0.0060;0.899
5.201000;0.1708;0.9033;0.0720;0.922
5.236000;0.2589;0.8757;0.1367;0.923
5.237000;0.3356;0.8662;0.1509;0.941
5.238000;0.3803;0.8409;0.1182;0.930
5.245000;0.3240;0.8122;0.1596;0.889
5.251000;0.2691;0.7654;0.1328;0.822
5.261000;0.3034;0.7644;0.1873;0.844
5.271000;0.4082;0.7566;0.1845;0.879
5.281000;0.5195;0.7203;0.1015;0.894
5.298000;0.6395;0.7020;0.0485;0.951
5.303000;0.7455;0.6753;0.0074;1.006
5.339000;0.7732;0.6152;-0.0779;0.991
5.341000;0.6957;0.4968;-0.1107;0.862
5.342000;0.6229;0.3617;-0.2545;0.764
5.344000;0.4888;0.2857;-0.1587;0.588
5.351000;0.2289;0.2568;0.0080;0.344
5.361000;0.0574;0.2077;0.0960;0.236
5.371000;-0.0096;0.1269;0.2236;0.257
5.383000;-0.0586;0.0756;0.3240;0.338
5.400000;-0.1119;0.0145;0.4259;0.441
5.404000;-0.2717;-0.4690;0.5830;0.796
5.443000;-0.7404;-1.5011;0.8756;1.889
5.445000;-1.1132;-2.5835;1.5917;3.232
5.446000;-1.2965;-3.4279;2.3219;4.339
5.448000;-1.1286;-3.6887;3.2445;5.041
5.451000;-0.6950;-3.4698;4.5443;5.760
5.462000;-0.4606;-2.8571;5.6049;6.308
5.471000;-0.2961;-2.1786;5.6664;6.078
5.481000;-0.5558;-1.8896;4.6336;5.035
5.492000;-0.8283;-1.6995;3.0656;3.602
5.501000;-1.2316;-1.5199;0.0943;1.958
5.532000;-1.4905;-1.5909;-1.0598;2.424
5.534000;-1.6941;-1.6235;-1.8450;2.985
5.535000;-1.7633;-1.5863;-1.9131;3.047
5.543000;-1.6157;-1.5431;-1.3933;2.633
5.552000;-1.2726;-1.4376;-0.7217;2.051
5.561000;-0.8398;-1.2999;-0.1674;1.557
5.571000;-0.3929;-1.1182;0.3078;1.225
5.582000;-0.0786;-0.9675;0.7546;1.229
5.592000;0.0541;-0.8574;1.0664;1.369
5.603000;0.1240;-0.6954;1.1452;1.346
5.647000;0.1338;-0.4894;0.9417;1.070
5.649000;0.1277;-0.3069;0.5032;0.603
5.650000;0.0752;-0.1527;-0.0614;0.181
5.651000;-0.0341;0.0125;-0.7140;0.715
5.652000;-0.1854;0.1064;-1.3442;1.361
5.662000;-0.3214;0.0889;-1.8706;1.900
5.671000;-0.4539;0.0606;-2.2461;2.292
5.681000;-0.5647;0.0492;-2.5006;2.564
5.692000;-0.6620;0.0606;-2.6352;2.718
5.701000;-0.7425;0.0722;-2.5768;2.683
5.737000;-0.7477;0.1106;-2.4213;2.537
5.739000;-0.7325;0.2142;-2.1975;2.326
5.740000;-0.7391;0.3263;-1.9173;2.081
5.742000;-0.7730;0.4012;-1.6263;1.845
5.752000;-0.8052;0.4221;-1.4023;1.671
5.762000;-0.7771;0.4169;-1.3003;1.571
5.771000;-0.7152;0.4151;-1.2343;1.486
5.781000;-0.6612;0.3703;-1.1466;1.374
5.791000;-0.6063;0.3027;-1.0290;1.232
5.802000;-0.4940;0.2009;-0.8821;1.031
5.838000;-0.4000;0.1069;-0.6442;0.766
5.839000;-0.3067;0.0583;-0.3071;0.438
5.840000;-0.2763;0.0286;0.3639;0.458
5.842000;-0.2810;0.2044;0.5237;0.628
5.851000;-0.2766;0.3496;0.5517;0.709
5.861000;-0.2375;0.4640;0.5115;0.730
5.871000;-0.2039;0.5085;0.3769;0.665
5.882000;-0.1314;0.5135;0.1848;0.561
5.891000;-0.0872;0.5357;-0.0419;0.544
5.902000;-0.0793;0.5714;-0.1909;0.608
5.952000;-0.0895;0.6119;-0.2346;0.661
5.954000;-0.0672;0.6497;-0.1457;0.669
5.955000;-0.0400;0.5804;0.2076;0.618
5.955000;-0.1053;0.5566;0.3631;0.673
5.964000;-0.2433;0.4723;0.4670;0.707
5.972000;-0.3956;0.3539;0.6319;0.825
5.981000;-0.4425;0.2604;0.7549;0.913
5.991000;-0.4882;0.2228;0.8072;0.969
6.001000;-0.5687;0.1587;0.8644;1.047
6.050000;-0.6007;0.2154;0.9216;1.121
6.052000;-0.6409;0.2967;0.8857;1.133
6.053000;-0.6887;0.3309;0.8378;1.134
6.054000;-0.6203;0.3796;0.7817;1.068
6.055000;-0.4509;0.5430;0.7447;1.026
6.061000;-0.2380;0.5760;0.6287;0.885
6.071000;-0.1707;0.1630;0.5342;0.584
6.082000;-0.3797;-0.8781;0.6732;1.170
6.092000;-0.4983;-2.1246;0.8506;2.342
6.102000;-0.4844;-2.8806;1.1441;3.137
6.142000;-0.3961;-3.0409;1.8871;3.601
6.145000;-0.2964;-2.8645;2.8585;4.058
6.147000;-0.2969;-2.3863;3.7561;4.460
6.148000;-0.4067;-1.8054;3.8812;4.300
6.151000;-0.7244;-1.5070;3.3618;3.755
6.161000;-0.9700;-1.3786;1.4433;2.219
6.171000;-0.5336;-0.8555;0.6113;1.179
6.181000;-0.1045;-0.3885;0.0885;0.412
6.191000;0.2448;-0.0886;-0.1088;0.282
6.201000;0.6238;0.0788;-0.2568;0.679
6.240000;0.9464;0.1022;-0.2681;0.989
6.242000;1.2401;0.0050;-0.2056;1.257
6.244000;1.4475;-0.1077;-0.0727;1.453
6.244000;1.5090;-0.1748;0.0498;1.520
6.251000;1.3115;-0.2791;0.0803;1.343
6.261000;1.0144;-0.4091;0.0143;1.094
6.271000;0.6822;-0.5227;0.0291;0.860
6.281000;0.4093;-0.5518;0.0358;0.688
6.291000;0.1885;-0.4268;-0.0647;0.471
6.304000;-0.0617;-0.2921;-0.2977;0.422
6.357000;-0.3121;-0.2127;-0.6142;0.721
6.359000;-0.5017;-0.1694;-0.9531;1.090
6.360000;-0.5228;-0.0595;-1.1597;1.274
6.361000;-0.3710;0.1460;-1.3121;1.371
6.362000;-0.1468;0.3524;-1.4351;1.485
6.364000;0.1224;0.5179;-1.5193;1.610
6.372000;0.3897;0.6329;-1.5135;1.686
6.386000;0.5869;0.7620;-1.4849;1.769
6.392000;0.6956;0.8537;-1.4030;1.784
6.427000;0.6979;0.8513;-1.3373;1.732
6.429000;0.6811;0.8183;-1.2969;1.678
6.429000;0.6668;0.7839;-1.2588;1.626
6.432000;0.6489;0.7738;-1.2606;1.615
6.441000;0.6415;0.7320;-1.2568;1.590
6.451000;0.5996;0.6135;-1.3235;1.577
6.462000;0.5438;0.5029;-1.3973;1.582
6.471000;0.4798;0.4893;-1.3309;1.497
6.481000;0.4228;0.5334;-1.1459;1.333
6.491000;0.4049;0.4751;-0.9570;1.143
6.502000;0.4742;0.4380;-0.5238;0.831
6.548000;0.5708;0.4838;-0.2150;0.779
6.549000;0.7017;0.4484;0.0724;0.836
6.550000;0.7437;0.3732;0.2906;0.881
6.551000;0.8041;0.3535;0.5135;1.017
6.552000;0.8976;0.3212;0.6515;1.155
6.563000;0.9687;0.2830;0.5979;1.173
6.572000;0.9484;0.2197;0.3695;1.041
6.581000;0.9058;0.1263;-0.0038;0.915
6.591000;0.8424;0.1448;-0.1676;0.871
6.602000;0.7368;0.4252;0.1559;0.865
6.640000;0.6272;0.6198;0.6901;1.120
6.642000;0.6285;0.7553;1.1428;1.507
6.644000;0.6505;0.8755;1.4454;1.811
6.645000;0.8033;0.9715;1.5022;1.961
6.651000;0.8128;0.8676;1.3440;1.794
6.662000;0.6514;0.5378;1.1181;1.401
6.671000;0.4392;0.2419;0.8940;1.025
6.682000;0.2875;0.0419;0.7172;0.774
6.691000;0.2026;-0.0832;0.7176;0.750
6.702000;0.1879;-0.1762;0.9527;0.987
6.737000;0.2061;-0.1550;1.2183;1.245
6.739000;0.1443;-0.2482;1.4916;1.519
6.740000;0.0216;-0.4248;1.6146;1.670
6.741000;-0.1424;-0.3319;1.3933;1.439
6.751000;-0.2723;0.1278;1.0338;1.077
6.761000;-0.4055;0.5051;0.7083;0.960
6.771000;-0.5682;0.1584;0.6429;0.872
6.781000;-0.8702;-0.7804;0.9428;1.502
6.791000;-1.1409;-1.6796;1.3554;2.441
6.802000;-1.1983;-2.1535;2.0111;3.181
6.831000;-0.8489;-2.1946;2.9470;3.771
6.834000;-0.4393;-1.9209;3.4617;3.983
6.836000;-0.5501;-1.1996;2.6107;2.925
6.841000;-0.6579;-0.9973;1.6436;2.032
6.851000;-0.6550;-0.6726;0.7563;1.206
6.863000;-0.7402;-0.4402;-0.0299;0.862
6.871000;-0.7906;-0.3250;-0.7487;1.136
6.881000;-0.8025;-0.2031;-1.3171;1.556
6.891000;-0.7620;-0.1017;-1.5783;1.756
6.901000;-0.6007;-0.2055;-1.6360;1.755
6.942000;-0.4201;-0.4299;-1.6124;1.721
6.944000;-0.2390;-0.6218;-1.4879;1.630
6.945000;-0.1122;-0.7705;-1.2350;1.460
6.946000;0.0414;-0.8228;-0.8957;1.217
6.953000;0.1567;-0.7309;-0.5418;0.923
6.963000;0.1823;-0.5534;-0.2391;0.630
6.971000;0.1590;-0.4289;-0.0534;0.461
6.981000;0.1494;-0.2975;-0.1836;0.380
6.991000;0.1099;-0.1245;-0.5375;0.563
7.002000;0.0046;-0.0490;-0.9166;0.918
7.036000;-0.1256;0.0205;-1.2045;1.211
7.038000;-0.2649;0.1009;-1.4409;1.469
7.038000;-0.4542;0.1725;-1.6713;1.740
7.041000;-0.5967;0.1858;-1.9041;2.004
7.051000;-0.6689;0.1494;-2.0422;2.154
7.062000;-0.6223;0.1734;-2.0451;2.145
7.072000;-0.5153;0.2096;-1.9103;1.990
7.082000;-0.3975;0.2337;-1.6022;1.667
7.091000;-0.2743;0.2882;-1.1543;1.221
7.101000;-0.1357;0.3089;-0.6672;0.748
7.146000;-0.0611;0.2781;-0.2309;0.367
7.148000;-0.0346;0.1981;0.1956;0.281
7.149000;-0.1128;0.1190;0.4494;0.478
7.150000;-0.2345;0.0321;0.6337;0.676
7.151000;-0.3433;0.0260;0.7236;0.801
7.163000;-0.4360;0.0559;0.6580;0.791
7.171000;-0.4808;0.1041;0.4707;0.681
7.181000;-0.5127;0.2031;0.2083;0.589
7.191000;-0.5205;0.2944;-0.0023;0.598
7.202000;-0.4960;0.4169;-0.0200;0.648
7.232000;-0.4353;0.5909;0.0560;0.736
7.233000;-0.2697;0.7694;0.2240;0.846
7.234000;-0.1116;0.8776;0.4553;0.995
7.241000;-0.0232;0.9125;0.6252;1.106
7.251000;-0.0241;0.8734;0.6582;1.094
7.263000;-0.1133;0.7756;0.6022;0.989
7.271000;-0.2665;0.6446;0.5399;0.882
7.281000;-0.3818;0.4454;0.4823;0.759
7.291000;-0.4258;0.1814;0.5348;0.707
7.301000;-0.4895;-0.0970;0.7193;0.875
7.339000;-0.5717;-0.3443;1.0871;1.276
7.340000;-0.6168;-0.3474;1.4647;1.627
7.341000;-0.5858;-0.2020;1.6305;1.744
7.342000;-0.5765;-0.1180;1.6048;1.709
7.351000;-0.5660;-0.1902;1.4451;1.564
7.362000;-0.4540;-0.3301;1.2148;1.338
7.371000;-0.3060;-0.3672;0.9450;1.059
7.381000;-0.2007;-0.3219;0.6238;0.730
7.391000;-0.1802;-0.5286;0.4487;0.716
7.401000;-0.2065;-1.1532;0.5358;1.288
7.448000;-0.1330;-1.8997;0.6315;2.006
7.450000;-0.0370;-2.3788;1.0194;2.588
7.452000;0.0273;-2.3750;1.5941;2.861
7.453000;0.1338;-1.8698;2.0290;2.762
7.454000;0.1527;-1.3558;2.0835;2.490
7.463000;0.2207;-0.9620;1.8845;2.127
7.471000;0.3299;-0.7294;1.3036;1.530
7.481000;0.5556;-0.5762;0.5288;0.959
7.491000;0.8210;-0.6844;-0.6904;1.272
7.502000;0.8177;-0.8788;-1.0549;1.598
7.547000;0.7442;-1.0170;-1.1167;1.684
7.549000;0.6712;-1.0701;-0.6984;1.443
7.549000;0.6783;-1.0638;0.0423;1.262
7.550000;0.6316;-1.0924;0.7689;1.478
7.552000;0.4564;-1.0950;1.3068;1.765
7.562000;0.3406;-0.9383;1.5996;1.886
7.571000;0.2609;-0.6781;1.6196;1.775
7.581000;0.2240;-0.4757;1.3077;1.409
7.591000;0.1438;-0.3271;0.6720;0.761
7.602000;0.0021;-0.1987;-0.1258;0.235
7.637000;-0.0863;-0.0103;-0.8464;0.851
7.638000;-0.0865;0.1455;-1.3230;1.334
7.640000;-0.0087;0.2897;-1.6742;1.699
7.641000;0.0747;0.4375;-1.9464;1.996
7.651000;0.1623;0.5307;-2.0810;2.154
7.664000;0.2460;0.5521;-2.0995;2.185
7.672000;0.2751;0.5316;-2.1109;2.194
7.681000;0.2427;0.4777;-2.0757;2.144
7.691000;0.1583;0.3711;-1.9627;2.004
7.703000;0.0782;0.2469;-1.7707;1.790
7.748000;0.0229;0.2031;-1.6279;1.641
7.750000;-0.0298;0.1959;-1.4244;1.438
7.752000;-0.0067;0.1922;-1.3203;1.334
7.753000;0.0553;0.2600;-1.3468;1.373
7.754000;0.1416;0.3081;-1.2748;1.319
7.763000;0.3245;0.3783;-1.2418;1.338
7.772000;0.5173;0.4356;-1.0721;1.268
7.782000;0.7376;0.4745;-0.7885;1.179
7.791000;0.8882;0.5109;-0.4439;1.117
7.803000;0.9092;0.5700;-0.0098;1.073
7.840000;0.8354;0.6583;0.4155;1.142
7.841000;0.7272;0.7221;0.4513;1.120
7.842000;0.4702;0.7638;0.1181;0.905
7.843000;0.3472;0.7720;-0.2213;0.875
7.852000;0.2626;0.7969;-0.4709;0.962
7.862000;0.1952;0.8034;-0.5251;0.979
7.871000;0.2167;0.8399;-0.2823;0.912
7.881000;0.3167;0.8687;0.1655;0.939
7.891000;0.4534;0.8867;0.6505;1.190
7.902000;0.6066;0.8016;1.0612;1.462
7.912000;0.6882;0.6714;1.3162;1.630
7.937000;0.6742;0.5550;1.6090;1.831
7.939000;0.6171;0.4681;1.9786;2.125
7.942000;0.5465;0.4909;2.2795;2.395
7.951000;0.5276;0.5469;2.3263;2.447
7.962000;0.5654;0.5144;2.1670;2.298
7.971000;0.5997;0.2368;1.9346;2.039
7.981000;0.5775;-0.1723;1.6512;1.758
7.991000;0.4432;-0.3712;1.3144;1.436
8.002000;0.2221;-0.4363;0.9805;1.096
8.012000;0.0517;-0.6429;0.8251;1.047
8.038000;-0.0189;-1.1288;0.9549;1.479
8.040000;-0.0987;-1.6825;1.2335;2.089
8.041000;-0.2877;-2.1901;1.9288;2.933
8.051000;-0.2294;-2.2167;2.5658;3.398
8.061000;-0.1850;-1.9349;2.7264;3.348
8.071000;-0.3154;-1.5522;2.4264;2.898
8.082000;-0.3854;-1.2774;1.8355;2.269
8.091000;-0.3251;-0.9941;0.9800;1.433
8.101000;-0.2955;-0.7465;0.2023;0.828
8.134000;-0.4038;-0.5914;-0.5491;0.902
8.136000;-0.5836;-0.5327;-1.1304;1.379
8.137000;-0.8015;-0.5588;-1.4650;1.761
8.141000;-0.9994;-0.6059;-1.5708;1.958
8.151000;-1.1035;-0.6824;-1.4717;1.962
8.161000;-1.0778;-0.9156;-0.8875;1.670
8.171000;-0.9466;-0.9354;-0.6091;1.464
8.181000;-0.7660;-0.8698;-0.2141;1.179
8.191000;-0.5835;-0.7068;0.2021;0.939
8.202000;-0.4150;-0.4568;0.5266;0.811
8.212000;-0.2339;-0.1633;0.5916;0.657
8.236000;-0.1278;0.1091;0.3774;0.413
8.238000;-0.0677;0.2791;0.0441;0.291
8.242000;-0.0484;0.3731;-0.3536;0.516
8.251000;0.0154;0.4745;-0.7080;0.852
8.263000;0.0635;0.5351;-1.0394;1.171
8.271000;0.1232;0.5250;-1.3107;1.417
8.282000;0.1267;0.5230;-1.5097;1.603
8.291000;0.0381;0.5270;-1.5594;1.647
8.305000;-0.0580;0.5127;-1.5266;1.611
8.354000;-0.1390;0.5215;-1.4661;1.562
8.356000;-0.1517;0.5478;-1.3335;1.450
8.357000;-0.1026;0.5308;-1.1777;1.296
8.358000;0.0025;0.5258;-0.9784;1.111
8.359000;0.1193;0.4977;-0.6591;0.834
8.361000;0.2595;0.5812;-0.4065;0.755
8.372000;0.2421;0.5895;-0.1668;0.659
8.382000;0.1872;0.5842;0.1017;0.622
8.391000;0.1088;0.5740;0.2579;0.639
8.403000;0.0301;0.5156;0.2715;0.583
8.412000;-0.0891;0.4621;0.2469;0.531
8.450000;-0.1616;0.4243;0.2067;0.499
8.451000;-0.2528;0.4208;0.2300;0.542
8.453000;-0.3724;0.4797;0.2296;0.649
8.454000;-0.4815;0.5419;0.2208;0.758
8.461000;-0.5496;0.5642;0.2373;0.823
8.471000;-0.5727;0.5746;0.2199;0.841
8.482000;-0.5188;0.6235;0.1845;0.832
8.491000;-0.3459;0.6316;0.1523;0.736
8.501000;-0.2454;0.6442;0.2058;0.719
8.511000;-0.2395;0.5872;0.3260;0.713
8.522000;-0.2067;0.5071;0.4830;0.730
8.558000;-0.1312;0.4240;0.6743;0.807
8.559000;-0.1226;0.3030;0.8618;0.922
8.560000;-0.1070;0.1762;1.1126;1.132
8.562000;-0.1025;0.0826;1.3478;1.354
8.572000;-0.1376;0.0192;1.4717;1.478
8.582000;-0.2359;0.1209;1.4234;1.448
8.591000;-0.2965;0.2875;1.1621;1.233
8.601000;-0.3215;0.4442;0.8770;1.034
8.612000;-0.3617;0.3657;0.7430;0.904
8.622000;-0.3896;0.1939;0.6308;0.766
8.659000;-0.4728;-0.0235;0.4267;0.637
8.661000;-0.5701;-0.3394;0.3556;0.753
8.661000;-0.6320;-0.7874;0.5577;1.153
8.663000;-0.7189;-1.3307;1.0978;1.869
8.671000;-0.7582;-1.9114;1.9568;2.839
8.682000;-0.6242;-2.3439;2.7220;3.646
8.691000;-0.3164;-2.3017;3.5752;4.264
8.701000;-0.1192;-1.9663;4.2266;4.663
8.711000;0.1577;-1.3692;4.4462;4.655
8.722000;0.2794;-0.8106;3.9471;4.039
8.754000;0.1733;-0.3820;3.0685;3.097
8.757000;-0.0017;-0.1971;1.8202;1.831
8.757000;-0.0419;-0.1869;0.5893;0.620
8.761000;-0.0092;-0.2527;-0.3981;0.472
8.771000;0.0418;-0.3775;-1.2591;1.315
8.783000;0.0634;-0.5495;-1.7634;1.848
8.791000;0.1504;-0.5977;-1.6919;1.801
8.801000;0.2696;-0.5986;-1.3256;1.479
8.811000;0.4906;-0.4470;-0.7829;1.026
8.822000;0.8525;-0.2618;0.3684;0.965
8.874000;0.8415;-0.1651;0.5645;1.027
8.876000;0.7869;-0.0590;0.4829;0.925
8.877000;0.6392;0.0020;0.1854;0.666
8.878000;0.4750;0.0818;-0.2300;0.534
8.880000;0.3219;0.1796;-0.6986;0.790
8.885000;0.1716;0.3159;-1.1905;1.244
8.891000;0.0369;0.4268;-1.6563;1.711
8.901000;-0.0343;0.5064;-1.9795;2.044
8.911000;-0.0879;0.6119;-2.1909;2.276
8.921000;-0.0795;0.6851;-2.3226;2.423
8.961000;-0.0462;0.7414;-2.4370;2.548
8.963000;0.0112;0.8288;-2.3987;2.538
8.965000;0.0613;0.9033;-2.2571;2.432
8.966000;0.1371;0.9765;-2.0302;2.257
8.971000;0.2045;1.0208;-1.8094;2.088
8.982000;0.2608;1.0364;-1.5613;1.892
8.991000;0.2657;1.0168;-1.2968;1.669
9.001000;0.2633;0.9594;-1.0136;1.420
9.011000;0.2929;0.9086;-0.8612;1.286
9.022000;0.2904;0.8171;-0.8123;1.188
9.060000;0.3101;0.7106;-0.7456;1.076
9.061000;0.3843;0.6261;-0.6336;0.970
9.062000;0.4124;0.5706;-0.4990;0.863
9.064000;0.4564;0.5357;-0.3382;0.781
9.071000;0.4990;0.5158;-0.1238;0.728
9.082000;0.5570;0.5101;0.1636;0.773
9.091000;0.6320;0.5158;0.4113;0.914
9.102000;0.6777;0.5162;0.5405;1.009
9.112000;0.6279;0.4665;0.6125;0.993
9.123000;0.5019;0.3897;0.6801;0.931
9.167000;0.3486;0.3676;0.7494;0.905
9.168000;0.2218;0.3785;0.7940;0.907
9.169000;0.1118;0.3453;0.9204;0.989
9.170000;-0.1448;0.1763;0.9935;1.019
9.172000;-0.2088;0.0738;1.0515;1.075
9.182000;-0.2057;-0.0470;1.1433;1.163
9.191000;-0.1524;-0.0720;1.2376;1.249
9.202000;-0.0635;0.0138;1.3176;1.319
9.211000;-0.0150;0.0624;1.4154;1.417
9.223000;0.1225;0.0018;1.5119;1.517
9.261000;0.2269;-0.1407;1.5195;1.543
9.264000;0.1444;-0.2274;1.3918;1.418
9.266000;-0.0705;-0.3240;1.1718;1.218
9.267000;-0.3692;-0.5434;1.0154;1.209
9.272000;-0.6319;-0.9953;1.1717;1.662
9.282000;-0.7195;-1.4808;1.4745;2.210
9.291000;-0.7195;-1.9337;1.8221;2.753
9.301000;-0.7302;-2.2597;2.2281;3.256
9.311000;-0.6359;-2.2167;2.6362;3.503
9.321000;-0.4094;-1.8195;2.9087;3.455
9.360000;-0.2008;-1.3695;2.8330;3.153
9.362000;-0.0415;-0.9763;2.4005;2.592
9.364000;-0.0107;-0.6637;1.4769;1.619
9.366000;-0.0811;-0.3771;0.4678;0.606
9.372000;-0.1581;-0.1036;-0.4447;0.483
9.384000;-0.3073;0.0527;-1.1837;1.224
9.392000;-0.6123;-0.0184;-1.8427;1.942
9.401000;-0.9559;-0.2498;-2.3060;2.509
9.411000;-1.2319;-0.5229;-2.4935;2.830
9.422000;-1.4358;-0.7605;-2.2003;2.735
9.453000;-1.4430;-0.9096;-1.5735;2.321
9.455000;-1.2438;-0.9520;-0.8308;1.773
9.456000;-0.8845;-0.8436;-0.1496;1.231
9.461000;-0.4445;-0.6698;0.4329;0.913
9.471000;-0.0296;-0.4803;0.8670;0.992
9.482000;0.4444;-0.2221;1.2623;1.357
9.492000;0.5747;-0.0078;1.1070;1.247
9.501000;0.6212;0.1348;0.5120;0.816
9.511000;0.6270;0.1649;-0.2496;0.695
9.524000;0.5145;0.2021;-0.9569;1.105
9.564000;0.3656;0.2974;-1.5812;1.650
9.566000;0.3017;0.4217;-2.1119;2.175
9.567000;0.3568;0.4521;-2.4549;2.522
9.568000;0.4342;0.4736;-2.5103;2.591
9.571000;0.5103;0.6038;-2.2710;2.405
9.583000;0.5350;0.7087;-1.8664;2.067
9.591000;0.5032;0.7465;-1.4512;1.708
9.601000;0.5124;0.7832;-1.1437;1.478
9.611000;0.4725;0.7831;-0.9549;1.322
9.625000;0.3713;0.6816;-0.8235;1.132
9.661000;0.3127;0.6140;-0.6296;0.933
9.663000;0.2621;0.5647;-0.4307;0.757
9.666000;0.1679;0.5294;-0.2364;0.604
9.667000;0.0421;0.5263;-0.0549;0.531
9.671000;-0.0749;0.6126;0.1053;0.626
9.683000;-0.1826;0.7179;0.1868;0.764
9.692000;-0.3088;0.8296;0.1619;0.900
9.701000;-0.4509;0.8881;0.0412;0.997
9.711000;-0.5919;0.8828;-0.1295;1.071
9.722000;-0.7023;0.8621;-0.3061;1.153
9.760000;-0.8158;0.8729;-0.3998;1.260
9.762000;-0.8760;0.9400;-0.3563;1.333
9.763000;-0.8896;1.0137;-0.2525;1.372
9.766000;-0.9022;1.0435;0.0176;1.380
9.771000;-0.8402;1.0320;0.2971;1.364
9.784000;-0.6926;1.0054;0.5486;1.338
9.791000;-0.5583;0.8930;0.8331;1.343
9.801000;-0.4566;0.7651;1.0596;1.384
9.811000;-0.4779;0.3158;1.2954;1.416
9.824000;-0.5793;0.0392;1.5273;1.634
9.861000;-0.7396;-0.2127;1.7507;1.912
9.863000;-0.9244;-0.1678;1.9539;2.168
9.865000;-1.1356;-0.1898;1.9092;2.230
9.866000;-1.1777;-0.0063;1.6613;2.036
9.871000;-1.0973;0.2633;1.1240;1.593
9.884000;-0.8534;0.3993;0.5750;1.104
9.892000;-0.5895;0.3861;0.3471;0.786
9.901000;-0.3379;0.4248;0.3156;0.628
9.911000;-0.1811;0.4135;0.2214;0.503
9.922000;-0.0829;0.2073;0.2360;0.325
9.958000;-0.0346;-0.5119;0.4442;0.679
9.960000;0.0285;-1.5015;0.9230;1.763
9.961000;-0.0071;-2.2986;1.9407;3.008
9.962000;0.1803;-2.3855;2.9166;3.772
9.971000;0.2946;-1.9737;3.5240;4.050
9.983000;0.3545;-1.5146;3.8108;4.116
9.991000;0.3055;-1.1719;3.4074;3.616
10.001000;0.0930;-0.9137;2.0720;2.266
10.011000;0.0099;-0.6845;0.7213;0.994
10.023000;0.2301;-0.5116;-0.4427;0.715
10.053000;0.4747;-0.4456;-1.3278;1.479
10.054000;0.5975;-0.4609;-1.7859;1.939
10.055000;0.5620;-0.5726;-1.8877;2.051
10.061000;0.4086;-0.6902;-1.4834;1.686
10.071000;0.3194;-0.7346;-0.6660;1.042
10.082000;0.2825;-0.7840;0.1424;0.845
10.091000;0.1643;-0.8488;0.6496;1.081
10.105000;0.1593;-0.7957;0.9334;1.237
10.111000;0.2471;-0.5889;1.0249;1.208
10.141000;0.2505;-0.3492;0.9607;1.052
10.142000;0.1709;-0.0995;0.6078;0.639
10.143000;0.0449;0.1341;0.0726;0.159
10.151000;-0.0558;0.5298;-1.2461;1.355
10.161000;0.0149;0.7283;-1.8446;1.983
10.171000;0.0853;0.8655;-2.3452;2.501
10.181000;0.1866;0.8868;-2.6651;2.815
10.191000;0.2873;0.8478;-2.8030;2.942
10.205000;0.3510;0.8645;-2.7611;2.915
10.211000;0.3386;0.8249;-2.7358;2.877
10.240000;0.3267;0.7896;-2.5714;2.710
10.242000;0.3350;0.7360;-2.2751;2.415
10.243000;0.3629;0.6914;-1.9128;2.066
10.251000;0.4141;0.6461;-1.5360;1.717
10.261000;0.4403;0.5743;-1.1578;1.365
10.271000;0.4450;0.4912;-0.8271;1.060
10.282000;0.4064;0.4288;-0.5208;0.788
10.291000;0.3898;0.4016;-0.2295;0.605
10.303000;0.4332;0.3772;0.0426;0.576
10.311000;0.5411;0.3409;0.3314;0.720
10.334000;0.6743;0.3586;0.6057;0.975
10.335000;0.8032;0.4077;0.8209;1.219
10.341000;0.8299;0.3876;0.9615;1.328
10.351000;0.8192;0.4305;0.9411;1.320
10.361000;0.7170;0.5051;0.8629;1.230
10.371000;0.5488;0.5502;0.7438;1.076
10.381000;0.3713;0.5248;0.6137;0.889
10.391000;0.2138;0.5103;0.5176;0.758
10.405000;0.1055;0.5074;0.4940;0.716
10.411000;-0.0017;0.5530;0.5800;0.801
10.448000;-0.0757;0.5341;0.6469;0.842
10.450000;-0.0468;0.4768;0.7797;0.915
10.472000;-0.0136;0.4315;0.8693;0.971
10.473000;0.0224;0.4690;0.9368;1.048
10.474000;0.0524;0.5923;1.0038;1.167
10.475000;0.1900;0.6665;0.9942;1.212
10.484000;0.8118;0.3695;0.8493;1.232
10.491000;1.0896;0.1539;0.6112;1.259
10.501000;1.0569;-0.1263;0.4800;1.168
10.511000;0.7848;-0.4746;0.4883;1.039
10.521000;0.3693;-0.9555;0.7535;1.272
10.532000;-0.0727;-1.5980;1.2850;2.052
10.560000;-0.3980;-2.0414;1.8758;2.801
10.562000;-0.5768;-2.0614;2.4841;3.279
10.563000;-0.6157;-1.8345;3.0023;3.572
10.572000;-0.5188;-1.5965;3.3213;3.721
10.581000;-0.2178;-1.2085;3.3049;3.526
10.591000;0.0555;-0.7819;2.7416;2.851
10.605000;0.1124;-0.4166;1.7854;1.837
10.611000;-0.0013;-0.1341;0.8145;0.825
10.638000;-0.1662;0.0837;0.1016;0.212
10.639000;-0.4775;0.0621;-0.4844;0.683
10.641000;-0.8016;-0.0799;-0.9945;1.280
10.652000;-1.0912;-0.3570;-1.3407;1.765
10.661000;-1.2647;-0.5141;-1.4736;2.009
10.671000;-1.4145;-0.6719;-1.0261;1.872
10.681000;-1.3433;-0.7170;-0.4601;1.591
10.691000;-1.1890;-0.6938;0.0772;1.379
10.706000;-0.9534;-0.5466;0.5084;1.211
10.711000;-0.6557;-0.3987;0.7600;1.080
10.748000;-0.4367;-0.2556;0.8618;0.999
10.752000;-0.3471;-0.2125;0.8765;0.966
10.753000;-0.2016;-0.0773;0.7824;0.812
10.754000;-0.0621;0.1363;0.5012;0.523
10.761000;0.0364;0.3106;0.0663;0.320
10.771000;0.0534;0.4538;-0.4392;0.634
10.781000;0.0461;0.6359;-1.0521;1.230
10.791000;-0.0437;0.7683;-1.6723;1.841
10.806000;-0.1704;0.8550;-2.2350;2.399
10.811000;-0.2574;1.0010;-3.0438;3.215
10.853000;-0.2702;1.0570;-3.1949;3.376
10.855000;-0.2711;1.1016;-3.1385;3.337
10.856000;-0.2221;1.1296;-2.8853;3.106
10.858000;-0.1952;1.1293;-2.4451;2.700
10.861000;-0.1086;1.1349;-1.8827;2.201
10.871000;-0.0258;1.1434;-1.3082;1.738
10.881000;0.0706;1.1369;-0.7611;1.370
10.891000;0.1520;1.0923;-0.2343;1.127
10.907000;0.1395;0.9390;0.3584;1.015
10.911000;0.0290;0.7802;1.1189;1.364
10.953000;-0.1607;0.6752;1.8626;1.988
10.955000;-0.3800;0.6715;2.6002;2.712
10.956000;-0.5412;0.6958;3.1687;3.289
10.957000;-0.5942;0.7469;3.3323;3.466
10.961000;-0.5896;0.8192;2.9757;3.142
10.972000;-0.5967;0.7912;2.2296;2.440
10.981000;-0.5738;0.7622;1.2617;1.582
10.991000;-0.5016;0.7951;0.3690;1.010
11.006000;-0.3794;0.8253;-0.2613;0.945
11.012000;-0.2660;0.8027;-0.5083;0.987
11.047000;-0.1493;0.8386;-0.5816;1.031
11.049000;-0.1449;0.6368;-0.4610;0.799
11.050000;0.0293;0.4342;-0.2556;0.505
11.051000;0.1552;0.1546;0.0214;0.220
11.061000;0.1807;-0.1511;0.4425;0.501
11.071000;0.0577;-0.4099;0.7967;0.898
11.081000;-0.1415;-0.5652;1.0985;1.243
11.091000;-0.2901;-0.6165;1.2258;1.402
11.108000;-0.3174;-0.4391;1.0460;1.178
11.111000;-0.3936;-0.2730;0.7037;0.851
11.147000;-0.4683;-0.2336;0.2565;0.583
11.149000;-0.4760;-0.2732;-0.1031;0.558
11.152000;-0.2425;-0.2682;-0.2074;0.417
11.153000;-0.1422;-0.3168;0.0717;0.355
11.161000;0.0517;-0.5966;0.5175;0.791
11.172000;0.2760;-1.0593;1.0344;1.506
11.181000;0.5041;-1.4796;1.6811;2.296
11.191000;0.7199;-1.6570;2.4220;3.022
11.208000;0.9189;-1.5031;3.0772;3.546
11.213000;1.0273;-1.1102;3.5247;3.836
11.247000;1.0320;-0.6591;3.5414;3.747
11.249000;0.9374;-0.3374;2.8803;3.048
11.251000;0.8642;-0.1894;1.8568;2.057
11.252000;0.8563;-0.1108;0.9123;1.256
11.261000;0.8633;-0.1833;-0.0860;0.887
11.271000;0.8174;-0.4492;-0.9415;1.325
11.281000;0.6973;-0.6950;-1.5031;1.797
11.292000;0.5342;-0.8259;-1.7595;2.016
11.307000;0.4515;-0.8848;-1.5966;1.880
11.311000;0.3373;-0.8564;-0.8525;1.255
11.351000;0.2227;-0.7104;-0.1616;0.762
11.353000;0.0904;-0.5266;0.2534;0.591
11.353000;-0.0313;-0.3790;0.4184;0.565
11.354000;-0.1455;-0.2501;0.2375;0.374
11.361000;-0.2569;-0.0706;-0.3544;0.443
11.371000;-0.3808;0.1499;-1.0664;1.142
11.381000;-0.5240;0.3558;-1.6926;1.807
11.391000;-0.5361;0.5610;-2.1308;2.268
11.408000;-0.4144;0.8181;-2.4513;2.617
11.412000;-0.2650;1.0305;-2.6722;2.876
11.454000;-0.1154;1.1747;-2.6833;2.931
11.456000;-0.0024;1.2433;-2.5364;2.825
11.457000;0.0556;1.2745;-2.3321;2.658
11.459000;0.1303;1.2413;-2.0278;2.381
11.461000;0.2107;1.1746;-1.6844;2.064
11.471000;0.2524;1.0484;-1.4539;1.810
11.481000;0.2476;0.8052;-1.2211;1.483
11.491000;0.2904;0.6655;-1.0565;1.282
11.510000;0.3538;0.4919;-0.8833;1.071
11.513000;0.4328;0.3488;-0.6057;0.822
11.555000;0.4465;0.2746;-0.1564;0.547
11.556000;0.4478;0.2511;0.3183;0.604
11.558000;0.4741;0.2777;0.6508;0.852
11.559000;0.5587;0.3418;0.9030;1.116
11.561000;0.7253;0.4171;1.0352;1.331
11.574000;0.8241;0.4747;1.0452;1.413
11.583000;0.8871;0.5219;0.9686;1.413
11.591000;0.8910;0.5477;0.8449;1.345
11.606000;0.8205;0.5349;0.6756;1.190
11.611000;0.6040;0.4767;0.5565;0.950
11.638000;0.3713;0.4341;0.5311;0.780
11.639000;0.1483;0.3609;0.5431;0.669
11.641000;-0.0208;0.2679;0.5866;0.645
11.652000;-0.1567;0.1077;0.6675;0.694
11.661000;-0.3155;-0.1158;0.8458;0.910
11.671000;-0.3854;-0.2084;1.1370;1.218
11.681000;-0.3287;-0.0466;1.3913;1.430
11.691000;-0.2586;0.1627;1.5034;1.534
11.706000;-0.1324;0.1256;1.3462;1.358
11.711000;-0.0764;-0.2540;1.0634;1.096
11.733000;-0.2064;-1.0596;0.9171;1.416
11.734000;-0.4763;-2.0086;1.0607;2.321
11.741000;-0.8337;-2.8301;1.7124;3.411
11.752000;-1.0244;-3.2242;2.7299;4.347
11.761000;-1.0402;-2.9937;3.5723;4.775
11.771000;-0.7853;-2.2041;4.1555;4.769
11.781000;-0.3384;-1.3141;4.3417;4.549
11.791000;-0.0340;-0.9432;3.7124;3.830
11.806000;0.2015;-0.6325;2.4131;2.503
11.811000;-0.0118;-0.3057;-0.0233;0.307
11.837000;-0.3006;-0.3832;-0.8519;0.981
11.838000;-0.5550;-0.4765;-1.5256;1.692
11.842000;-0.8212;-0.5992;-1.6455;1.934
11.852000;-0.9571;-0.6808;-1.2553;1.719
11.861000;-0.9733;-0.6555;-0.7747;1.406
11.871000;-0.9852;-0.5662;-0.5532;1.264
11.881000;-1.0160;-0.4260;-0.4924;1.207
11.891000;-1.0356;-0.2791;-0.5674;1.213
11.906000;-1.0079;-0.1429;-0.6367;1.201
11.911000;-0.8052;0.0392;-0.5783;0.992
11.938000;-0.5571;0.3057;-0.4715;0.791
11.940000;-0.3018;0.5353;-0.5560;0.829
11.941000;-0.1104;0.6829;-0.6625;0.958
11.953000;0.0071;0.8246;-0.7852;1.139
11.961000;-0.0040;0.8835;-0.8992;1.261
11.971000;-0.0880;0.9204;-1.1110;1.445
11.981000;-0.1594;0.9586;-1.3261;1.644
11.991000;-0.2634;0.9579;-1.6138;1.895
12.006000;-0.3467;0.8486;-1.8972;2.107
12.011000;-0.4003;0.7678;-2.1128;2.283
12.038000;-0.4560;0.7718;-2.1740;2.352
12.039000;-0.4611;0.7645;-2.0162;2.205
12.042000;-0.4472;0.7121;-1.6930;1.890
12.053000;-0.3762;0.6592;-1.2643;1.475
12.061000;-0.2851;0.6319;-0.8282;1.080
12.072000;-0.1795;0.5597;-0.4866;0.763
12.081000;-0.1070;0.4917;-0.1713;0.532
12.092000;-0.1038;0.4179;0.1454;0.455
12.109000;-0.1411;0.4021;0.4201;0.598
12.112000;-0.2054;0.3893;0.6171;0.758
12.147000;-0.2802;0.4139;0.7398;0.893
12.149000;-0.3478;0.4547;0.7870;0.973
12.149000;-0.4895;0.5327;0.4869;0.872
12.157000;-0.5564;0.5938;0.3257;0.876
12.161000;-0.5437;0.6917;0.1525;0.893
12.171000;-0.5273;0.7639;0.0020;0.928
12.181000;-0.4947;0.7863;0.0251;0.929
12.191000;-0.3881;0.7501;0.0506;0.846
12.208000;-0.2864;0.7058;0.2019;0.788
12.212000;-0.1984;0.5974;0.4275;0.761
12.247000;-0.0957;0.4396;0.8185;0.934
12.248000;0.0956;0.2289;1.2659;1.290
12.249000;0.2260;-0.0041;1.8225;1.836
12.257000;0.1487;-0.2058;2.3564;2.370
12.261000;-0.1405;-0.3238;2.5768;2.601
12.272000;-0.4909;-0.2791;2.6703;2.729
12.281000;-0.7066;-0.1665;2.4717;2.576
12.291000;-0.9190;-0.2559;2.1273;2.331
12.302000;-1.1483;-0.4628;1.6620;2.072
12.312000;-1.3777;-0.6682;1.3119;2.016
12.356000;-1.3440;-0.6419;1.1464;1.880
12.357000;-1.0896;-0.4384;1.1989;1.678
12.358000;-0.8403;-0.4648;1.5138;1.793
12.359000;-0.6336;-0.7632;1.8755;2.122
12.361000;-0.4053;-1.2327;2.2673;2.612
12.371000;0.0369;-1.4224;2.5897;2.955
12.381000;0.4341;-1.4458;2.6524;3.052
12.391000;0.7076;-1.2287;2.7007;3.050
12.402000;0.8893;-0.9116;2.5000;2.806
12.412000;0.8834;-0.5973;1.8720;2.154
12.441000;0.7912;-0.4321;0.9852;1.335
12.442000;0.9262;-0.3031;0.0671;0.977
12.443000;1.0651;-0.3438;-0.8238;1.390
12.451000;1.0958;-0.5271;-1.6190;2.025
12.461000;1.0270;-0.6566;-2.1989;2.514
12.471000;0.7816;-0.9431;-2.8051;3.061
12.481000;0.7011;-1.1279;-2.5803;2.902
12.491000;0.6794;-1.2270;-1.9398;2.394
12.502000;0.6159;-1.2157;-1.1564;1.787
12.511000;0.5456;-1.1817;-0.5785;1.424
12.550000;0.5240;-1.0118;-0.2120;1.159
12.552000;0.5814;-0.6661;-0.0056;0.884
12.553000;0.6595;-0.3352;-0.1164;0.749
12.554000;0.7103;-0.0956;-0.4237;0.833
12.561000;0.7453;0.1294;-0.8056;1.105
12.571000;0.7772;0.3875;-1.3052;1.568
12.581000;0.8318;0.5896;-1.7813;2.052
12.592000;0.8410;0.6659;-2.1717;2.422
12.602000;0.8705;0.7078;-2.4079;2.656
12.612000;0.9087;0.7095;-2.4647;2.721
12.643000;0.9385;0.6387;-2.3409;2.602
12.645000;0.8538;0.5286;-2.1142;2.341
12.647000;0.6661;0.4268;-1.9125;2.070
12.654000;0.4744;0.3377;-1.6783;1.776
12.661000;0.3323;0.2503;-1.4283;1.488
12.672000;0.2355;0.1403;-1.1276;1.160
12.681000;0.2406;0.1129;-0.7846;0.828
12.691000;0.2961;0.1956;-0.4375;0.563
12.702000;0.2991;0.2494;-0.1137;0.406
12.712000;0.4198;0.2944;0.1888;0.546
12.738000;0.6318;0.4205;0.4544;0.885
12.740000;0.7723;0.5449;0.5498;1.093
12.742000;0.9598;0.6381;0.6802;1.338
12.751000;1.1558;0.7349;0.7260;1.550
12.762000;1.2712;0.7684;0.6917;1.639
12.772000;1.2896;0.7385;0.6064;1.605
12.781000;1.2081;0.5703;0.6642;1.492
12.791000;1.1391;0.3584;0.7887;1.431
12.802000;0.9326;0.1427;1.2090;1.534
12.813000;0.5197;-0.2850;1.5626;1.671
12.860000;0.2595;-0.4104;1.9680;2.027
12.862000;0.0865;-0.3811;2.3618;2.394
12.863000;-0.0138;-0.2125;2.6051;2.614
12.865000;-0.0377;-0.0473;2.6332;2.634
12.866000;-0.0614;0.0316;2.2785;2.280
12.872000;-0.1288;0.0116;1.6844;1.689
12.881000;-0.1947;-0.0914;1.1574;1.177
12.891000;-0.2461;-0.3374;0.8651;0.961
12.901000;-0.1939;-0.7470;0.8243;1.129
12.912000;-0.1283;-1.2519;1.1488;1.704
12.944000;-0.0136;-1.7309;1.8948;2.566
12.946000;0.1498;-1.9080;2.9274;3.498
12.947000;0.1916;-1.6997;3.7581;4.129
12.951000;0.2992;-1.2705;4.1964;4.395
12.961000;0.3095;-0.9447;4.1093;4.228
12.971000;0.1504;-0.7536;3.1781;3.270
12.981000;-0.1343;-0.6722;1.8212;1.946
12.991000;-0.5556;-0.5815;0.5869;0.996
13.002000;-1.0105;-0.5557;-0.4794;1.249
13.012000;-1.4394;-0.6590;-1.4133;2.122
13.052000;-1.8290;-0.7865;-2.2959;3.039
13.055000;-2.0531;-0.8311;-2.7871;3.560
13.057000;-2.0421;-0.8240;-2.7008;3.485
13.059000;-1.9052;-0.7529;-2.2054;3.010
13.062000;-1.7293;-0.6823;-1.6135;2.462
13.072000;-1.4397;-0.5856;-1.0186;1.858
13.081000;-1.0812;-0.4449;-0.5238;1.281
13.091000;-0.6990;-0.2484;-0.2214;0.774
13.101000;-0.3725;-0.1532;-0.1177;0.420
13.112000;-0.0541;-0.0241;-0.1364;0.149
13.150000;0.2165;0.1421;-0.1954;0.324
13.152000;0.3729;0.3097;-0.7988;0.934
13.154000;0.4167;0.5306;-1.3526;1.512
13.156000;0.2660;0.5590;-1.9596;2.055
13.161000;0.0531;0.5524;-2.5129;2.573
13.171000;-0.0923;0.5604;-2.9668;3.021
13.181000;-0.1929;0.6020;-3.3187;3.378
13.191000;-0.2791;0.6315;-3.5387;3.605
13.201000;-0.2884;0.6292;-3.5631;3.630
13.212000;-0.1884;0.6255;-3.2927;3.357
13.245000;-0.0575;0.6711;-2.6615;2.745
13.247000;0.0437;0.6759;-1.8780;1.996
13.248000;0.1297;0.6632;-1.1097;1.299
13.251000;0.2247;0.6215;-0.4824;0.818
13.261000;0.2749;0.5159;-0.0107;0.585
13.271000;0.2783;0.3940;0.3833;0.616
13.281000;0.2551;0.3735;0.6920;0.827
13.292000;0.1221;0.3611;1.0114;1.081
13.302000;-0.0133;0.4427;1.3020;1.375
13.314000;-0.1113;0.5573;1.3733;1.486
13.364000;-0.2242;0.5977;1.2336;1.389
13.366000;-0.2765;0.6667;0.9380;1.184
13.367000;-0.3608;0.7414;0.6600;1.056
13.368000;-0.4332;0.7998;0.4271;1.005
13.368000;-0.4187;0.8495;0.2754;0.986
13.375000;-0.3261;0.9006;0.1319;0.967
13.381000;-0.2674;0.8628;0.0996;0.909
13.392000;-0.1785;0.7086;0.3034;0.791
13.401000;-0.0388;0.5684;0.6846;0.891
13.411000;0.0979;0.4126;1.1810;1.255
13.443000;0.0879;0.1800;1.6417;1.654
13.444000;-0.0477;-0.0280;2.0498;2.051
13.445000;-0.2163;-0.0782;2.3334;2.345
13.451000;-0.3776;0.0047;2.4409;2.470
13.461000;-0.4970;0.1077;1.8060;1.876
13.471000;-1.0207;-0.3455;1.5444;1.883
13.481000;-1.3006;-1.0272;1.4815;2.223
13.492000;-1.4985;-1.7211;1.7110;2.852
13.501000;-1.3946;-2.2446;2.0740;3.359
13.513000;-1.0028;-2.5073;2.6389;3.776
13.565000;-0.4660;-2.3939;3.2923;4.097
13.568000;-0.0290;-1.8609;3.6611;4.107
13.570000;0.1174;-1.2157;3.6028;3.804
13.573000;0.0067;-0.7355;3.0079;3.097
13.574000;-0.1636;-0.4458;2.2126;2.263
13.575000;-0.0942;-0.2867;1.2294;1.266
13.581000;0.1492;-0.2851;0.2605;0.414
13.591000;0.3340;-0.3789;-0.6068;0.789
13.601000;0.4340;-0.4486;-1.2679;1.413
13.612000;0.4794;-0.4433;-1.6086;1.736
13.648000;0.4952;-0.4570;-1.5720;1.710
13.650000;0.5535;-0.5029;-1.3503;1.544
13.650000;0.6942;-0.5427;-1.1012;1.410
13.651000;0.7431;-0.6912;-0.5698;1.164
13.661000;0.9083;-0.5441;-0.0842;1.062
13.672000;0.8155;-0.4799;0.0931;0.951
13.681000;0.6134;-0.3879;-0.0133;0.726
13.692000;0.3232;-0.2138;0.0776;0.395
13.701000;0.0109;0.0065;-0.1240;0.125
13.711000;-0.2388;0.2011;-0.7847;0.845
13.754000;-0.2659;0.2968;-1.4677;1.521
13.755000;-0.1198;0.3514;-1.9349;1.970
13.756000;0.0345;0.4631;-2.2422;2.290
13.757000;0.1033;0.6564;-2.4829;2.570
13.761000;0.0583;0.8293;-2.5843;2.715
13.772000;0.0451;0.9628;-2.5118;2.690
13.781000;0.1034;1.0599;-2.3640;2.593
13.791000;0.2196;1.1642;-2.3243;2.609
13.801000;0.3300;1.0911;-2.0385;2.336
13.812000;0.3144;1.0197;-1.9975;2.265
13.857000;0.2742;0.8936;-1.8695;2.090
13.859000;0.3266;0.7397;-1.6244;1.815
13.860000;0.3784;0.6302;-1.2909;1.486
13.861000;0.3810;0.4634;-0.8808;1.066
13.862000;0.3503;0.2707;-0.4324;0.619
13.873000;0.2778;0.1755;0.0330;0.330
13.881000;0.2733;0.1992;0.4684;0.578
13.891000;0.3930;0.2640;0.7936;0.924
13.901000;0.5806;0.3314;0.9941;1.198
13.911000;0.8242;0.4554;0.9693;1.351
13.947000;1.0178;0.5515;0.8472;1.435
13.948000;1.1255;0.6887;0.6398;1.466
13.949000;1.1063;0.6122;0.3388;1.309
13.951000;1.0161;0.5491;0.1826;1.169
13.961000;0.8306;0.4125;0.0601;0.929
13.972000;0.6194;0.1968;0.0071;0.650
13.981000;0.4393;-0.0321;0.1137;0.455
13.991000;0.2561;-0.0952;0.2972;0.404
14.001000;0.1213;-0.0879;0.6738;0.690
14.012000;0.0836;-0.0858;1.0818;1.088
14.049000;0.0615;-0.1438;1.4135;1.422
14.051000;0.1045;-0.1472;1.5527;1.563
14.052000;0.2412;-0.0821;1.5220;1.543
14.053000;0.4231;-0.0901;1.4338;1.498
14.061000;0.3731;-0.4294;1.6064;1.704
14.072000;0.0471;-1.0854;2.0363;2.308
14.081000;-0.3299;-1.7439;2.6516;3.191
14.092000;-0.4473;-1.9907;3.3450;3.918
14.102000;-0.2409;-1.8587;3.8124;4.248
14.116000;0.1146;-1.4520;3.8384;4.105
14.148000;0.0513;-0.8136;2.6604;2.782
14.149000;-0.3224;-0.5396;1.7288;1.840
14.150000;-0.6884;-0.2572;1.0125;1.251
14.152000;-0.9405;-0.1074;0.3006;0.993
14.161000;-1.3921;-0.0766;-0.6379;1.533
14.173000;-1.8535;-0.1400;-1.4519;2.359
14.181000;-2.1183;-0.3121;-1.7652;2.775
14.191000;-1.9921;-0.4763;-1.7138;2.671
14.201000;-1.5323;-0.5645;-1.2834;2.077
14.213000;-0.9203;-0.6003;-0.5972;1.251
14.248000;-0.3774;-0.5505;0.0703;0.671
14.249000;-0.0217;-0.3158;0.5596;0.643
14.250000;0.1607;-0.0909;0.9302;0.948
14.251000;0.2533;0.0739;0.7901;0.833
14.262000;0.3753;0.2498;0.1796;0.485
14.273000;0.5228;0.4573;-0.5315;0.875
14.281000;0.5133;0.5964;-1.1873;1.424
14.291000;0.4088;0.6739;-1.7902;1.956
14.301000;0.3456;0.7993;-2.4033;2.556
14.311000;0.2068;0.8741;-2.8681;3.005
14.332000;-0.0008;0.8822;-3.1747;3.295
14.336000;-0.1854;0.9220;-3.4044;3.532
14.372000;-0.2745;0.9324;-3.4744;3.608
14.374000;-0.2560;0.8924;-3.4100;3.534
14.375000;-0.2025;0.7521;-2.9966;3.096
14.376000;-0.0943;0.6809;-2.3350;2.434
14.382000;-0.0458;0.5990;-1.5433;1.656
14.392000;-0.0721;0.4390;-0.7873;0.904
14.401000;-0.1471;0.2031;-0.0337;0.253
14.411000;-0.2092;0.0726;0.6387;0.676
14.430000;-0.2658;0.1010;1.1589;1.193
14.433000;-0.2981;0.1508;1.5355;1.571
14.476000;-0.2344;0.3154;1.7812;1.824
14.478000;-0.1345;0.5377;1.7716;1.856
14.479000;-0.0835;0.8097;0.8961;1.211
14.480000;-0.0767;0.8785;0.3648;0.954
14.482000;-0.0344;0.9278;-0.0891;0.933
14.491000;-0.0477;0.8627;-0.2919;0.912
14.501000;-0.0509;0.8206;-0.3833;0.907
14.511000;-0.0690;0.6455;-0.2472;0.695
14.522000;-0.0525;0.4355;0.2399;0.500
14.532000;-0.0135;0.1017;0.8866;0.892
14.578000;0.0675;-0.0894;1.6305;1.634
14.580000;0.0301;-0.1886;2.1555;2.164
14.582000;-0.1533;-0.2226;2.3766;2.392
14.584000;-0.4159;-0.2961;2.2554;2.312
14.585000;-0.6059;-0.3969;1.8373;1.975
14.591000;-0.6582;-0.5515;1.5043;1.732
14.601000;-0.7818;-0.7018;1.4841;1.818
14.611000;-0.9395;-0.8719;1.6880;2.119
14.621000;-1.0029;-1.2147;1.9344;2.495
14.632000;-0.8924;-1.6366;2.3765;3.020
14.670000;-0.5307;-1.8389;2.8875;3.464
14.673000;-0.0024;-1.6257;3.3079;3.686
14.675000;0.4889;-1.1299;3.2950;3.517
14.676000;0.7609;-0.6968;2.9048;3.083
14.681000;0.7989;-0.4089;2.2639;2.435
14.691000;0.8200;-0.1855;1.4377;1.665
14.701000;0.9785;-0.0506;0.6320;1.166
14.712000;1.0409;-0.1526;0.0000;1.052
14.721000;1.0289;-0.3965;-0.5784;1.245
14.732000;0.9628;-0.6383;-0.9773;1.513
14.768000;0.8840;-0.7400;-1.1947;1.660
14.770000;0.6854;-0.8165;-1.1717;1.584
14.771000;0.4367;-0.9397;-0.9214;1.387
14.772000;0.1912;-1.0538;-0.4161;1.149
14.781000;0.0285;-0.8925;-0.0442;0.894
14.791000;-0.1632;-0.6159;0.0816;0.642
14.801000;-0.4405;0.0071;-0.2499;0.507
14.811000;-0.5193;0.2584;-0.7512;0.949
14.821000;-0.5103;0.4612;-1.2070;1.389
14.832000;-0.4308;0.7080;-1.4999;1.714
14.867000;-0.3424;1.0090;-1.6502;1.964
14.869000;-0.2401;1.3169;-1.8509;2.284
14.870000;-0.1143;1.5313;-1.9935;2.516
14.872000;-0.0357;1.6323;-2.0278;2.603
14.881000;-0.0618;1.6311;-2.1158;2.672
14.892000;-0.0826;1.5736;-2.2155;2.719
14.902000;-0.1611;1.4223;-2.2250;2.646
14.912000;-0.3053;1.2333;-2.1035;2.457
14.923000;-0.3424;1.0497;-1.8555;2.159
14.933000;-0.3168;0.8608;-1.5395;1.792
14.969000;-0.3412;0.6334;-1.1910;1.391
14.971000;-0.4211;0.4413;-0.8349;1.034
14.974000;-0.4459;0.2875;-0.5058;0.733
14.975000;-0.3673;0.1827;-0.1306;0.431
14.981000;-0.1209;0.1497;0.2369;0.305
14.991000;0.2455;0.2244;0.6562;0.736
15.001000;0.5953;0.3348;1.0360;1.241
15.011000;0.8841;0.4422;1.2528;1.596
15.021000;1.0224;0.5011;1.3551;1.770
15.031000;1.0936;0.4726;1.2662;1.739
15.069000;1.0005;0.2815;1.0503;1.478
15.071000;0.8423;0.0108;0.8272;1.181
15.074000;0.6749;-0.2416;0.7300;1.023
15.075000;0.5184;-0.3303;0.7830;0.995
15.091000;0.0630;-0.5767;1.2799;1.405
15.101000;-0.1539;-0.6690;1.6135;1.753
15.111000;-0.2971;-0.5121;2.0228;2.108
15.122000;-0.3266;-0.2089;2.2277;2.261
15.132000;-0.2304;0.6198;1.6809;1.806
15.162000;-0.1725;0.6174;1.0491;1.229
15.164000;-0.1157;0.2519;0.5682;0.632
15.164000;-0.0770;-0.2276;0.3757;0.446
15.171000;-0.2243;-0.9681;0.5660;1.144
15.181000;-0.4195;-1.9982;1.5462;2.561
15.191000;-0.3741;-2.6414;2.8531;3.906
15.201000;-0.3951;-2.5478;3.9287;4.699
15.211000;-0.1406;-1.7037;4.6860;4.988
15.221000;0.1594;-0.9742;4.8735;4.972
15.232000;0.3861;-0.6689;4.1145;4.186
15.263000;0.3813;-0.5659;2.5438;2.634
15.265000;0.3167;-0.3670;0.9560;1.072
15.266000;0.1956;-0.2686;-0.3748;0.501
15.271000;-0.0431;-0.4123;-1.4187;1.478
15.281000;-0.2277;-0.4800;-2.4232;2.481
15.292000;-0.5159;-0.5710;-3.1176;3.211
15.301000;-0.7331;-0.7521;-3.0082;3.186
15.311000;-0.7798;-0.9451;-2.2557;2.567
15.322000;-0.7247;-1.0387;-1.3821;1.875
15.332000;-0.6731;-0.9702;-0.7430;1.395
15.362000;-0.5688;-0.7717;-0.2472;0.990
15.363000;-0.4081;-0.5320;0.1353;0.684
15.365000;-0.1401;-0.2571;0.3256;0.438
15.371000;0.0980;0.0337;0.1560;0.187
15.381000;0.2188;0.2180;-0.2266;0.383
15.392000;0.3917;0.4433;-0.6287;0.863
15.401000;0.5810;0.6294;-1.1116;1.403
15.412000;0.6179;0.7391;-1.5988;1.867
15.421000;0.5416;0.7412;-2.1069;2.298
15.432000;0.4403;0.7336;-2.5544;2.694
15.467000;0.3035;0.7051;-3.0128;3.109
15.469000;0.1890;0.6925;-3.2162;3.295
15.470000;0.2418;0.7104;-3.2255;3.312
15.473000;0.1972;0.6963;-2.9713;3.058
15.481000;0.1339;0.6835;-2.6450;2.735
15.492000;0.0263;0.5844;-2.2287;2.304
15.501000;0.0045;0.4663;-1.7129;1.775
15.511000;0.0068;0.3987;-1.2208;1.284
15.521000;0.0435;0.3666;-0.7608;0.846
15.533000;-0.0097;0.2471;-0.2300;0.338
15.560000;-0.0508;0.2257;0.3116;0.388
15.563000;-0.0911;0.3129;0.7430;0.811
15.564000;-0.1870;0.4455;1.0679;1.172
15.571000;-0.2291;0.5724;1.1257;1.284
15.581000;-0.2523;0.6434;0.9428;1.169
15.592000;-0.2784;0.7077;0.6447;0.997
15.601000;-0.2474;0.7934;0.2913;0.881
15.612000;-0.2039;0.8602;0.0839;0.888
15.621000;-0.1308;0.8817;0.0824;0.895
15.633000;-0.0241;0.8283;0.3480;0.899
15.662000;0.0597;0.6300;0.8722;1.078
15.664000;0.1581;0.3117;1.5762;1.614
15.665000;0.1881;-0.0826;2.3424;2.351
15.671000;0.0852;-0.4555;3.0213;3.057
15.681000;-0.2296;-0.6409;3.3447;3.413
15.693000;-0.5282;-0.4412;3.2538;3.326
15.701000;-0.6550;-0.0854;2.7714;2.849
15.712000;-0.5841;0.2242;1.9441;2.042
15.721000;-0.5151;0.2525;0.9898;1.144
15.731000;-0.5450;-0.0055;0.5013;0.741
15.773000;-0.6354;-0.3271;0.3110;0.779
15.775000;-0.7190;-0.5530;0.3400;0.969
15.775000;-0.7189;-0.7689;0.7895;1.316
15.776000;-0.5192;-0.9694;1.6752;2.004
15.782000;-0.0197;-0.8952;2.4775;2.634
15.793000;0.7494;-0.3755;3.1065;3.218
15.802000;0.9032;-0.0470;2.8734;3.012
15.814000;0.8866;0.1618;2.1624;2.343
15.821000;0.7719;0.1900;1.1323;1.383
15.831000;0.8174;0.1716;0.2665;0.877
15.859000;0.9885;0.1124;-0.4120;1.077
15.861000;0.9460;0.0085;-0.9317;1.328
15.862000;0.7609;-0.1265;-1.2911;1.504
15.871000;0.4766;-0.3320;-1.2695;1.396
15.881000;0.2851;-0.6005;-0.9133;1.130
15.893000;0.1113;-0.8586;-0.2669;0.906
15.901000;-0.0612;-0.8981;0.2987;0.948
15.911000;-0.2489;-0.7474;0.5701;0.972
15.921000;-0.3280;-0.4556;0.6381;0.850
15.931000;-0.3525;-0.1696;0.3253;0.509
15.963000;-0.3559;0.0789;-0.2989;0.471
15.964000;-0.3255;0.3310;-1.0395;1.139
15.965000;-0.2952;0.5906;-1.6679;1.794
15.972000;-0.2337;0.8153;-2.1120;2.276
15.981000;-0.2140;0.9905;-2.4498;2.651
15.992000;-0.1547;1.1319;-2.7244;2.954
16.001000;-0.1285;1.1847;-2.9537;3.185
16.012000;-0.0988;1.1622;-3.1498;3.359
16.021000;-0.0852;1.0792;-3.1998;3.378
16.032000;-0.0375;1.0149;-3.0929;3.255
16.058000;0.0011;0.9035;-2.8076;2.949
16.061000;0.0440;0.7803;-2.3173;2.446
16.063000;0.0956;0.7014;-1.7851;1.920
16.071000;0.0793;0.6217;-1.2801;1.425
16.081000;0.0092;0.4513;-0.8324;0.947
16.093000;-0.0107;0.2598;-0.3844;0.464
16.101000;0.0605;0.0790;0.0423;0.108
16.111000;0.1592;0.0304;0.4010;0.432
16.121000;0.4360;0.0908;1.2254;1.304
16.131000;0.6253;0.2627;1.4991;1.645
16.165000;0.7578;0.3428;1.5403;1.751
16.166000;0.8395;0.3127;1.3787;1.644
16.167000;0.8386;0.1817;1.0971;1.393
16.171000;0.7636;-0.0251;0.8858;1.170
16.182000;0.6655;-0.1536;0.8337;1.078
16.193000;0.4132;-0.2879;0.9934;1.114
16.201000;-0.0055;-0.4903;1.2946;1.384
16.212000;-0.3329;-0.6738;1.6186;1.785
16.221000;-0.5173;-0.6515;1.8541;2.032
16.233000;-0.5943;-0.4168;2.0178;2.144
16.277000;-0.4835;-0.1658;2.1793;2.238
16.279000;-0.2179;-0.0286;2.0798;2.091
16.280000;-0.0223;-0.0717;1.6488;1.651
16.282000;0.2395;-0.2105;1.1496;1.193
16.283000;0.4537;-0.4314;1.0358;1.210
16.293000;0.5385;-0.7927;1.3310;1.640
16.302000;0.3556;-1.1587;1.8941;2.249
16.311000;-0.1246;-1.3759;2.3074;2.689
16.321000;-0.5165;-1.2677;2.8919;3.199
16.331000;-0.5783;-0.9489;3.0385;3.235
16.376000;-0.6950;-0.8353;2.4660;2.695
16.378000;-0.9680;-0.8320;1.3420;1.852
16.379000;-1.2115;-0.8675;0.2993;1.520
16.380000;-1.2038;-0.8790;-0.3986;1.543
16.381000;-1.2067;-0.8668;-0.8272;1.701
16.393000;-1.3061;-0.8156;-0.9012;1.784
16.401000;-1.2239;-0.6582;-0.7018;1.557
16.412000;-0.9721;-0.4732;-0.3692;1.142
16.422000;-0.6906;-0.3713;0.0993;0.790
16.435000;-0.4362;-0.2125;0.4675;0.674
16.479000;-0.2217;-0.0926;0.6945;0.735
16.481000;0.1498;0.3525;0.7009;0.799
16.482000;0.2466;0.5493;0.0460;0.604
16.483000;0.2724;0.6233;-0.7521;1.014
16.484000;0.2510;0.6935;-1.5114;1.682
16.494000;0.1695;0.7692;-2.2641;2.397
16.501000;0.0749;0.8266;-2.8640;2.982
16.512000;0.0363;0.8499;-3.2986;3.407
16.521000;0.0412;0.8712;-3.5477;3.653
16.531000;0.0339;0.8878;-3.5165;3.627
16.570000;0.1170;0.9590;-3.3234;3.461
16.573000;0.2081;1.0039;-3.0319;3.201
16.574000;0.3170;1.0058;-2.6134;2.818
16.576000;0.3991;0.9433;-2.1372;2.370
16.581000;0.4206;0.8768;-1.5976;1.870
16.592000;0.3899;0.8296;-1.1010;1.433
16.601000;0.3257;0.7126;-0.6547;1.021
16.614000;0.2459;0.5736;-0.2755;0.682
16.621000;0.1257;0.4924;0.1170;0.521
16.645000;-0.0503;0.4426;0.4641;0.643
16.647000;-0.2261;0.3985;0.7573;0.885
16.651000;-0.3213;0.3989;0.7668;0.922
16.661000;-0.4241;0.4125;0.5633;0.817
16.671000;-0.4978;0.4427;0.3047;0.733
16.681000;-0.5182;0.4862;0.1169;0.720
16.692000;-0.5248;0.5036;0.0250;0.728
16.701000;-0.5006;0.5596;0.0638;0.754
16.718000;-0.4119;0.6549;0.1542;0.789
16.722000;-0.3701;0.5847;0.5008;0.854
16.749000;-0.1050;0.3439;0.9896;1.053
16.750000;0.2471;-0.0405;1.5978;1.617
16.751000;0.4292;-0.4155;2.3265;2.402
16.761000;0.4597;-0.4777;2.7749;2.853
16.771000;0.3103;-0.4814;2.8283;2.886
16.781000;0.0540;-0.6759;2.5670;2.655
16.791000;-0.6878;-0.9592;1.5195;1.924
16.801000;-0.9808;-0.9536;1.0709;1.737
16.816000;-1.2740;-1.2424;0.9661;2.025
16.821000;-1.4154;-1.8208;1.3391;2.667
16.850000;-0.9946;-2.0556;1.8417;2.934
16.853000;-0.2478;-1.8163;2.5242;3.120
16.854000;0.4717;-1.3508;3.2598;3.560
16.861000;0.9989;-0.7739;3.4557;3.680
16.871000;1.2236;-0.3755;3.1440;3.395
16.881000;1.1976;-0.2010;2.4750;2.757
16.893000;1.2317;-0.0721;1.7285;2.124
16.901000;1.3900;-0.0369;1.1077;1.778
16.915000;1.4301;-0.1597;0.4903;1.520
16.921000;1.2448;-0.3008;-0.2057;1.297
16.956000;0.8974;-0.6610;-0.8272;1.388
16.957000;0.7921;-0.6559;-1.0964;1.503
16.959000;0.5678;-0.7647;-0.8177;1.255
16.966000;0.5101;-0.7664;-0.6389;1.121
16.971000;0.4086;-0.6767;-0.3650;0.871
16.981000;0.3156;-0.5092;-0.1458;0.617
16.994000;0.2122;-0.3058;-0.0950;0.384
17.001000;0.0201;-0.0955;-0.1651;0.192
17.011000;-0.2626;0.0826;-0.4278;0.509
17.021000;-0.5345;0.2355;-0.9027;1.075
17.031000;-0.6896;0.4921;-1.5670;1.781
17.042000;-0.7149;0.7441;-2.1886;2.420
17.073000;-0.6299;0.8860;-2.6161;2.833
17.075000;-0.4367;0.9502;-2.8996;3.082
17.077000;-0.3247;1.0083;-3.0428;3.222
17.082000;-0.2744;1.1054;-3.0301;3.237
17.091000;-0.2145;1.1600;-2.8726;3.105
17.101000;-0.0789;1.1855;-2.6266;2.883
17.115000;0.0369;1.0964;-2.4526;2.687
17.121000;0.1332;0.7068;-2.1555;2.272
17.155000;0.2084;0.5281;-1.8621;1.947
17.157000;0.2557;0.4545;-1.3891;1.484
17.158000;0.1986;0.4032;-0.8957;1.002
17.164000;0.1441;0.3035;-0.3916;0.516
17.171000;0.1942;0.1870;0.1389;0.303
17.181000;0.2658;0.1172;0.6394;0.702
17.191000;0.4073;0.1502;1.0478;1.134
17.202000;0.5897;0.2302;1.3507;1.492
17.218000;0.7394;0.2820;1.5433;1.734
17.224000;0.8549;0.2786;1.6185;1.852
17.268000;0.9007;0.1869;1.6266;1.869
17.270000;0.8535;0.0180;1.6538;1.861
17.271000;0.6569;-0.1108;1.6942;1.820
17.272000;0.3232;-0.2581;1.7503;1.799
17.273000;-0.0566;-0.3081;1.8517;1.878
17.281000;-0.4038;-0.1723;1.9570;2.006
17.291000;-0.6521;0.1494;1.9404;2.053
17.301000;-0.7056;0.4028;1.7301;1.911
17.315000;-0.4942;0.2638;1.4863;1.588
17.321000;-0.1383;-0.2085;1.3119;1.336
17.354000;0.0483;-1.0379;1.4953;1.821
17.356000;0.1486;-1.9907;2.2542;3.011
17.357000;0.0599;-2.5837;3.6303;4.456
17.362000;-0.2041;-2.5047;4.7448;5.369
17.371000;-0.1928;-1.8873;5.5338;5.850
17.381000;-0.0472;-1.1523;5.8599;5.972
17.391000;0.0161;-0.7294;4.9771;5.030
17.401000;-0.1453;-0.6493;3.0350;3.107
17.412000;-0.3935;-0.5490;1.0413;1.241
17.421000;-0.6652;-0.4632;-0.6735;1.054
17.433000;-0.9811;-0.4847;-2.2073;2.464
17.442000;-1.3160;-0.4477;-3.5300;3.794
17.470000;-1.8030;-0.4582;-3.7847;4.217
17.473000;-1.7149;-0.4552;-2.7789;3.297
17.475000;-1.4763;-0.3429;-1.7468;2.313
17.482000;-1.2025;-0.2120;-0.9194;1.528
17.491000;-0.9476;-0.1286;-0.2760;0.995
17.501000;-0.6129;-0.0118;0.1693;0.636
17.513000;-0.2722;0.1603;0.2978;0.434
17.521000;0.0617;0.3663;0.1212;0.391
17.533000;0.2927;0.6079;-0.3299;0.751
17.541000;0.4325;0.7277;-0.9072;1.241
17.579000;0.5009;0.8632;-1.4255;1.740
17.581000;0.5255;0.9069;-1.8043;2.087
17.582000;0.4830;0.8394;-2.2063;2.409
17.584000;0.3962;0.7781;-2.5474;2.693
17.591000;0.3271;0.7751;-2.7689;2.894
17.601000;0.2507;0.8040;-2.8886;3.009
17.612000;0.1777;0.8735;-2.9099;3.043
17.621000;0.0971;0.9415;-2.8796;3.031
17.631000;0.0599;0.9753;-2.7712;2.938
17.641000;0.0769;0.9999;-2.5801;2.768
17.652000;0.0426;0.9396;-2.2548;2.443
17.694000;-0.0685;0.7888;-1.7450;1.916
17.697000;-0.1493;0.5207;-1.1214;1.245
17.697000;-0.2007;0.2837;-0.3960;0.527
17.698000;-0.2758;0.1197;0.3056;0.429
17.701000;-0.2719;0.0881;1.1174;1.153
17.712000;-0.2252;0.1636;1.9078;1.928
17.722000;-0.0960;0.2887;2.6110;2.629
17.737000;0.1413;0.4253;3.1144;3.146
17.742000;0.3096;0.5171;3.2082;3.264
17.790000;0.3525;0.5763;2.9008;2.978
17.793000;0.3122;0.5815;2.3562;2.447
17.794000;0.2624;0.4380;1.8820;1.950
17.795000;0.1326;0.0610;1.5825;1.589
17.797000;0.0923;0.1586;1.6958;1.706
17.801000;-0.0048;0.1187;1.8677;1.871
17.813000;-0.2058;-0.2278;1.9978;2.021
17.821000;-0.4665;-0.6357;2.0455;2.192
17.832000;-0.7106;-0.9369;2.0239;2.341
17.841000;-0.7966;-1.1425;2.1856;2.592
17.852000;-0.7008;-1.3161;2.7019;3.086
17.890000;-0.4613;-1.3830;3.2915;3.600
17.893000;-0.1253;-1.1703;3.6669;3.851
17.895000;0.1139;-0.7406;3.5481;3.626
17.897000;0.2225;-0.2772;2.8977;2.919
17.901000;0.3050;0.0344;1.8173;1.843
17.912000;0.4710;0.2690;0.6851;0.874
17.921000;0.6556;0.3912;-0.3887;0.857
17.932000;0.9305;0.4060;-1.2868;1.639
17.941000;1.1674;0.3540;-1.9924;2.336
17.952000;1.2558;0.1150;-2.4311;2.739
17.989000;1.3173;-0.1712;-2.3323;2.684
17.991000;1.3393;-0.3707;-1.7559;2.239
17.993000;1.1189;-0.5339;-0.8360;1.495
17.995000;0.8503;-0.5876;0.0530;1.035
18.001000;0.7047;-0.5519;0.6920;1.131
18.012000;0.7172;-0.3384;0.9889;1.268
18.021000;0.5978;-0.0922;0.9580;1.133
18.032000;0.4660;0.0714;0.3235;0.572
18.041000;0.2837;0.1854;-0.8211;0.888
18.054000;0.1545;0.2604;-1.9490;1.972
18.103000;0.0758;0.3091;-2.7654;2.784
18.106000;0.0944;0.4151;-3.2502;3.278
18.107000;0.0961;0.6226;-3.5527;3.608
18.109000;0.0107;0.6509;-3.6158;3.674
18.110000;0.0218;0.7394;-3.5541;3.630
18.112000;-0.0160;0.9445;-2.9226;3.071
18.121000;-0.0201;0.9618;-2.5148;2.693
18.134000;-0.0257;0.9057;-2.1574;2.340
18.141000;0.0152;0.7834;-1.8166;1.978
18.173000;0.0330;0.5548;-1.4483;1.551
18.175000;0.0608;0.3202;-1.0428;1.093
18.176000;0.0628;0.1929;-0.5774;0.612
18.181000;0.0523;0.1383;0.0413;0.154
18.191000;0.0302;0.1351;0.5941;0.610
18.202000;0.0201;0.1748;0.8346;0.853
18.212000;-0.0223;0.1279;0.8455;0.855
18.221000;0.0273;0.0102;0.7981;0.799
18.232000;0.0003;-0.1786;0.8755;0.894
18.241000;-0.0908;-0.3002;0.7940;0.854
18.251000;-0.2816;-0.4464;0.8969;1.041
18.284000;-0.4602;-0.5831;1.1492;1.368
18.286000;-0.6037;-0.6837;1.6272;1.865
18.288000;-0.7589;-0.6854;2.0782;2.316
18.291000;-0.9443;-0.4578;2.3373;2.562
18.301000;-1.0122;-0.1572;2.3474;2.561
18.313000;-0.8805;0.0098;2.2521;2.418
18.321000;-0.5927;0.0055;2.1269;2.208
18.331000;-0.3328;-0.1261;1.9525;1.985
18.341000;-0.2061;-0.2950;1.9033;1.937
18.351000;-0.0257;-0.6081;2.0101;2.100
18.385000;0.2092;-1.0668;2.4389;2.670
18.388000;0.1571;-1.2620;2.9629;3.224
18.389000;-0.2977;-1.1828;3.5282;3.733
18.391000;-0.4800;-0.7546;3.3031;3.422
18.401000;-0.7293;-0.5234;2.2716;2.443
18.413000;-1.0760;-0.4326;0.8392;1.431
18.421000;-1.0509;-0.3162;-0.5183;1.214
18.432000;-0.5520;-0.1540;-2.1173;2.193
18.441000;-0.4366;-0.1309;-2.2642;2.310
18.452000;-0.1966;-0.1097;-2.1086;2.121
18.486000;0.0860;-0.1069;-1.5070;1.513
18.488000;0.3816;-0.5060;-0.4927;0.803
18.489000;0.7996;-0.5367;0.7631;1.229
18.491000;1.0378;-0.5239;1.9163;2.241
18.501000;1.1742;-0.2746;2.8773;3.120
18.513000;1.1448;-0.0014;3.3446;3.535
18.521000;0.8485;0.2237;3.0845;3.207
18.531000;0.4958;0.4347;2.1073;2.208
18.541000;0.2676;0.6713;0.7969;1.076
18.551000;0.0682;0.8076;-0.5081;0.957
18.584000;-0.1352;0.8904;-1.7440;1.963
18.586000;-0.3016;1.0367;-2.7802;2.983
18.588000;-0.4315;1.1368;-3.7217;3.915
18.591000;-0.5220;1.1542;-3.9663;4.164
18.601000;-0.4537;1.1034;-3.8995;4.078
18.613000;-0.3633;1.0296;-3.5706;3.734
18.621000;-0.1791;0.9992;-3.1147;3.276
18.632000;-0.1180;0.7773;-2.6996;2.812
18.641000;-0.1089;0.4988;-2.2031;2.261
18.653000;-0.0518;0.1549;-1.7378;1.745
18.691000;0.0591;-0.0942;-1.1241;1.130
18.693000;0.1657;-0.1614;-0.5354;0.583
18.694000;0.1877;-0.1660;0.0330;0.253
18.695000;0.1472;-0.1747;0.6459;0.685
18.701000;0.1324;-0.1959;1.1309;1.155
18.713000;0.1700;-0.2950;1.3935;1.435
18.721000;0.3012;-0.4030;1.4804;1.564
18.731000;0.4616;-0.5171;1.5866;1.731
18.741000;0.6351;-0.6478;1.4379;1.700
18.752000;0.8153;-0.8291;1.2545;1.711
18.786000;0.8874;-0.9918;1.3473;1.894
18.788000;0.8095;-0.9924;1.6552;2.093
18.789000;0.3269;-0.6119;1.9532;2.073
18.791000;0.0529;-0.5324;1.7137;1.795
18.801000;-0.0855;-0.5403;1.1916;1.311
18.812000;-0.2366;-0.6140;0.6935;0.956
18.821000;-0.4282;-0.6549;0.3282;0.849
18.834000;-0.6246;-0.7556;0.3015;1.026
18.841000;-0.7276;-0.8673;0.5322;1.251
18.868000;-0.7321;-1.0426;1.0596;1.657
18.869000;-0.4217;-0.8399;1.6984;1.941
18.871000;-0.0289;-0.3844;2.1374;2.172
18.881000;0.2496;0.0050;2.1636;2.178
18.891000;0.4133;0.2795;1.8524;1.918
18.901000;0.6385;0.4932;1.3331;1.558
18.911000;0.8534;0.5999;0.6641;1.237
18.921000;1.0543;0.5300;-0.1260;1.187
18.934000;1.4249;0.4594;-0.5920;1.610
18.941000;1.8028;0.4105;-0.7257;1.986
18.965000;1.8976;0.3684;-0.4013;1.974
18.968000;1.6473;0.0224;0.0630;1.649
18.971000;1.3245;-0.3673;0.4651;1.451
18.982000;0.8215;-0.6820;0.6046;1.227
18.991000;0.2324;-0.7035;0.6084;0.959
19.001000;-0.1540;-0.5947;0.2667;0.670
19.012000;-0.3255;-0.3225;-0.4543;0.645
19.021000;-0.3397;-0.0585;-1.1507;1.201
19.034000;-0.2078;0.3165;-1.7702;1.810
19.041000;-0.0884;0.5437;-2.3179;2.382
19.066000;0.1013;0.7994;-2.5659;2.689
19.067000;0.3208;1.1057;-2.6038;2.847
19.071000;0.5290;1.4387;-2.5298;2.958
19.081000;0.6966;1.6881;-2.3372;2.966
19.091000;0.8148;1.8346;-1.9846;2.823
19.101000;0.9279;1.8924;-1.6776;2.694
19.112000;0.5711;1.5956;-1.6160;2.342
19.121000;0.2006;1.1265;-1.9527;2.263
19.137000;-0.1132;0.6048;-2.0889;2.178
19.141000;-0.3338;0.1869;-1.9337;1.971
19.180000;-0.5244;-0.0680;-1.5208;1.610
19.182000;-0.6768;-0.2018;-0.8803;1.129
19.183000;-0.7234;-0.1991;-0.1190;0.760
19.185000;-0.6367;0.0282;0.5151;0.819
19.191000;-0.4806;0.1590;1.1034;1.214
19.201000;-0.1891;0.3037;1.4052;1.450
19.211000;0.0434;0.3471;1.4003;1.443
19.223000;0.1967;0.1491;1.2203;1.245
19.238000;0.2512;-0.1362;1.2255;1.258
19.244000;0.1248;-0.3889;1.3295;1.391
19.298000;-0.2267;-0.6216;1.4748;1.616
19.299000;-0.6277;-0.7416;1.5838;1.858
19.300000;-0.9836;-0.6440;1.7442;2.103
19.301000;-1.2056;-0.3802;1.6557;2.083
19.304000;-1.0789;-0.2154;1.2983;1.702
19.306000;-0.6483;-0.3009;0.9007;1.150
19.314000;-0.2284;-0.7542;0.6869;1.045
19.321000;0.1045;-1.3791;0.9534;1.680
19.334000;0.2564;-1.8847;1.9149;2.699
19.341000;0.0375;-2.0550;3.1267;3.742
19.354000;-0.2506;-1.7801;4.1052;4.482
19.362000;-0.5093;-1.2408;4.5522;4.746
19.383000;-0.8871;-0.7353;4.0828;4.242
19.385000;-1.1517;-0.3384;2.6126;2.875
19.391000;-1.5183;-0.1115;1.0955;1.876
19.401000;-1.9216;-0.0590;-0.2314;1.936
19.411000;-2.1853;-0.0876;-1.5753;2.695
19.421000;-2.1842;-0.1803;-2.4515;3.288
19.434000;-2.0031;-0.2212;-2.6271;3.311
19.441000;-1.7140;-0.3323;-1.1027;2.065
19.465000;-0.7146;-0.4933;-0.1009;0.874
19.467000;-0.1959;-0.2703;0.7779;0.847
19.471000;0.1462;0.0468;1.4656;1.474
19.481000;0.3803;0.2393;1.6869;1.746
19.491000;0.4427;0.2891;1.3405;1.441
19.502000;0.4508;0.3398;0.5687;0.801
19.511000;0.4649;0.4814;-0.4121;0.786
19.522000;0.4687;0.6118;-1.4819;1.670
19.532000;0.4284;0.7124;-2.2731;2.420
19.541000;0.3219;0.8143;-2.7913;2.925
19.552000;0.1902;0.8984;-3.1644;3.295
19.562000;0.0828;0.9198;-3.4365;3.558
19.597000;-0.0245;0.8979;-3.4975;3.611
19.599000;-0.1127;0.8754;-3.4179;3.530
19.600000;-0.2034;0.8427;-3.1632;3.280
19.602000;-0.2856;0.8656;-2.8756;3.017
19.612000;-0.4117;0.8385;-2.3699;2.547
19.622000;-0.4360;0.7989;-1.8146;2.030
19.635000;-0.3512;0.6823;-1.2148;1.437
19.642000;-0.2769;0.5177;-0.6387;0.867
19.685000;-0.2307;0.4042;-0.1090;0.478
19.686000;-0.1825;0.3250;0.4650;0.596
19.687000;-0.0487;0.3247;0.9371;0.993
19.688000;0.0214;0.3167;1.3790;1.415
19.691000;0.1566;0.3286;1.6405;1.680
19.701000;0.1967;0.2595;1.8333;1.862
19.712000;0.3012;0.1669;2.0350;2.064
19.721000;0.3851;0.0103;2.1595;2.194
19.735000;0.3995;-0.2765;2.2020;2.255
19.741000;0.3809;-0.6028;2.3185;2.426
19.773000;0.3574;-0.8826;2.5185;2.693
19.775000;0.3325;-0.8859;2.6696;2.832
19.776000;0.2999;-0.4643;2.7610;2.816
19.784000;0.3877;-0.4278;2.3024;2.374
19.791000;0.2994;-0.3902;1.4949;1.574
19.801000;0.0880;-0.3855;0.7860;0.880
19.811000;-0.1518;-0.4552;0.4632;0.667
19.821000;-0.3296;-0.5959;0.6662;0.953
19.835000;-0.6027;-0.9186;1.1795;1.612
19.841000;-0.7316;-1.2797;1.8571;2.371
19.871000;-0.4309;-1.3070;2.5100;2.863
19.873000;0.1213;-1.0445;2.9036;3.088
19.875000;0.5548;-0.7382;2.9469;3.088
19.881000;0.7637;-0.5011;2.6477;2.801
19.891000;1.0015;-0.2861;2.0083;2.262
19.901000;1.1692;-0.1503;1.1454;1.644
19.911000;1.2710;-0.0962;0.2012;1.290
19.922000;1.3226;-0.1225;-0.6317;1.471
19.937000;1.3062;-0.3497;-1.2476;1.840
19.941000;1.1280;-0.7075;-1.6568;2.126
19.984000;0.9728;-1.0696;-1.7945;2.304
19.986000;0.9440;-1.3024;-1.5263;2.217
19.988000;1.0688;-1.1951;-0.7459;1.768
19.989000;1.1587;-0.9193;0.2490;1.500
19.991000;1.2029;-0.4911;0.8411;1.548
20.002000;0.9302;-0.1568;1.1899;1.518
20.011000;0.6954;0.1605;1.1459;1.350
20.022000;0.4104;0.2695;0.4890;0.693
20.040000;0.1898;0.3492;-0.6301;0.745
20.044000;0.1393;0.5550;-1.7769;1.867
20.084000;0.2103;0.8642;-2.6209;2.768
20.086000;0.2626;1.1351;-3.1775;3.384
20.087000;0.3189;1.3146;-3.5474;3.797
20.089000;0.3338;1.3935;-3.6156;3.889
20.092000;0.3468;1.3956;-3.4901;3.775
20.101000;0.2865;1.2374;-2.9684;3.229
20.111000;0.1595;1.1267;-2.6969;2.927
20.121000;-0.0031;1.0445;-2.5031;2.712
20.137000;-0.2862;0.9305;-2.2948;2.493
20.141000;-0.6206;0.7723;-2.0621;2.288
20.175000;-0.8335;0.5534;-1.7451;2.012
20.177000;-0.8599;0.3709;-1.2949;1.598
20.177000;-0.7807;0.2394;-0.8396;1.171
20.185000;-0.6551;0.2237;-0.3455;0.774
20.191000;-0.5221;0.2102;0.1248;0.576
20.201000;-0.3391;0.1298;0.5329;0.645
20.211000;-0.2031;-0.0167;0.9564;0.978
20.221000;-0.0189;-0.2490;1.4726;1.494
20.238000;0.1422;-0.5048;2.0720;2.137
20.242000;0.0770;-0.7797;2.8525;2.958
20.283000;-0.0211;-0.9633;3.6598;3.784
20.286000;-0.1149;-0.8299;4.0750;4.160
20.287000;-0.2893;-0.4013;4.1776;4.207
20.291000;-0.3258;-0.0593;3.7897;3.804
20.293000;-0.2275;-0.1223;2.9257;2.937
20.301000;-0.1183;-0.5830;1.9764;2.064
20.311000;0.0555;-1.2297;1.3617;1.836
20.321000;0.2021;-1.7301;1.4616;2.274
20.337000;0.3547;-1.9470;2.3304;3.057
20.341000;0.3720;-1.9491;3.1045;3.685
20.377000;0.1621;-1.5637;3.7532;4.069
20.380000;0.1066;-0.9219;3.9947;4.101
20.382000;0.0916;-0.5148;3.4124;3.452
20.384000;0.0290;-0.3515;2.0027;2.034
20.391000;-0.1248;-0.1278;0.4934;0.525
20.401000;-0.2504;-0.0091;-0.8000;0.838
20.411000;-0.5340;-0.1837;-2.0154;2.093
20.421000;-0.9716;-0.5002;-2.6600;2.876
20.437000;-1.1559;-0.6537;-2.5668;2.890
20.441000;-0.9520;-0.5214;-0.6608;1.271
20.474000;-0.7053;-0.3493;0.2007;0.812
20.476000;-0.3746;-0.1009;0.8144;0.902
20.476000;-0.0769;0.1864;0.9796;1.000
20.485000;0.0844;0.3706;0.6235;0.730
20.491000;0.1987;0.4997;-0.1846;0.569
20.502000;0.2966;0.5688;-1.0798;1.256
20.511000;0.4988;0.6446;-1.8601;2.031
20.522000;0.7157;0.8164;-2.5281;2.751
20.537000;0.8006;1.0022;-3.1041;3.359
20.541000;0.7465;1.0809;-3.4349;3.677
20.576000;0.6639;1.0752;-3.5562;3.774
20.578000;0.5716;1.0979;-3.5244;3.735
20.579000;0.4565;1.0893;-3.4387;3.636
20.585000;0.3455;1.0511;-3.3348;3.514
20.591000;0.2696;1.0245;-3.1983;3.369
20.601000;0.2398;1.0061;-2.9632;3.139
20.611000;0.1439;0.9134;-2.6022;2.762
20.621000;0.0656;0.6654;-2.1046;2.208
20.639000;0.1470;0.4591;-1.4500;1.528
20.674000;0.2714;0.3849;-0.6411;0.795
20.676000;0.3316;0.3648;0.9292;1.052
20.677000;0.4559;0.3958;1.6435;1.751
20.684000;0.4291;0.2768;2.1061;2.167
20.692000;0.2762;0.0481;2.3893;2.406
20.701000;0.2021;-0.2164;2.5660;2.583
20.712000;0.2204;-0.5050;2.8912;2.943
20.721000;0.3120;-0.6355;3.2702;3.346
20.736000;0.3532;-0.5276;3.5317;3.588
20.741000;0.3118;-0.2133;3.6901;3.709
20.771000;0.3183;0.0610;3.4437;3.459
20.773000;0.2740;-0.0295;2.7915;2.805
20.774000;0.1792;-0.7983;1.8747;2.045
20.781000;0.0024;-1.4136;1.9846;2.437
20.791000;-0.1020;-2.0736;2.7214;3.423
20.801000;-0.0149;-2.3336;3.8611;4.512
20.811000;0.2143;-2.0312;4.7012;5.126
20.821000;0.4114;-1.4175;4.7106;4.936
20.838000;0.5679;-0.8347;3.7265;3.861
20.842000;0.5221;-0.4569;2.1277;2.238
20.871000;0.4936;-0.1718;0.6287;0.818
20.872000;0.7613;0.0814;-0.5518;0.944
20.873000;0.9522;0.1969;-1.6856;1.946
20.884000;0.9368;0.2149;-2.7968;2.957
20.891000;0.7113;0.1672;-3.5895;3.663
20.902000;0.3157;-0.0022;-4.0482;4.061
20.911000;-0.0311;-0.2582;-4.1371;4.145
20.921000;-0.1664;-0.3741;-3.5451;3.569
20.939000;-0.2320;-0.3965;-2.7079;2.747
20.943000;-0.1682;-0.3533;-1.8410;1.882
20.988000;-0.0426;-0.2999;-1.2120;1.249
20.990000;0.0677;-0.1399;-0.6747;0.692
20.991000;0.1737;0.0514;-0.2133;0.280
20.992000;0.2040;0.3075;-0.0807;0.378
20.993000;0.1418;0.5457;-0.4302;0.709
21.002000;0.0571;0.6496;-1.0671;1.251
21.011000;0.2027;0.7282;-1.6945;1.855
21.021000;0.3834;0.8155;-2.1782;2.357
21.032000;0.4958;0.8646;-2.4716;2.665
21.042000;0.5633;0.8566;-2.6083;2.803
21.074000;0.6011;0.8524;-2.4699;2.681
21.076000;0.6623;0.8328;-2.1703;2.417
21.078000;0.8115;0.7372;-1.8614;2.160
21.081000;0.9682;0.6088;-1.5531;1.929
21.092000;0.8785;0.4377;-1.0978;1.473
21.101000;0.3842;0.0628;0.2576;0.467
21.111000;0.1831;-0.1007;0.8818;0.906
21.122000;0.0250;-0.1772;1.3495;1.361
21.132000;-0.0842;-0.2424;1.6260;1.646
21.144000;-0.1833;-0.3196;1.5665;1.609
21.199000;-0.4100;-0.4900;1.4164;1.554
21.201000;-0.5923;-0.5927;1.4101;1.640
21.202000;-0.6948;-0.5838;1.6195;1.856
21.202000;-0.7795;-0.5550;1.9833;2.202
21.203000;-0.8892;-0.5204;2.3625;2.577
21.204000;-0.9424;-0.4228;2.5752;2.775
21.212000;-0.9820;-0.2182;2.4922;2.688
21.221000;-1.0149;-0.0140;2.2128;2.434
21.231000;-0.8930;0.0449;1.8172;2.025
21.241000;-0.5666;0.0354;1.4430;1.551
21.282000;-0.2645;-0.2415;1.1774;1.231
21.284000;0.0336;-0.8317;1.0594;1.347
21.284000;0.2015;-1.4314;1.2780;1.929
21.285000;-0.0613;-1.7510;1.8596;2.555
21.291000;-0.4012;-1.5910;2.3832;2.893
21.302000;-0.6506;-1.1532;2.7454;3.048
21.311000;-0.6733;-0.7219;2.7120;2.886
21.321000;-0.6852;-0.5572;1.9279;2.121
21.331000;-0.8015;-0.4528;0.6262;1.113
21.341000;-0.9808;-0.5544;-0.1472;1.136
21.383000;-1.0620;-0.8893;-0.2704;1.411
21.385000;-1.2871;-1.1194;-0.1040;1.709
21.386000;-1.4696;-1.1437;0.1630;1.869
21.387000;-1.3157;-0.9199;0.4371;1.664
21.391000;-1.0134;-0.6312;0.4575;1.278
21.402000;-0.6379;-0.3030;0.3006;0.767
21.411000;-0.3073;0.0338;-0.1423;0.340
21.421000;-0.0759;0.2661;-0.5383;0.605
21.432000;0.4615;0.5172;-1.0645;1.270
21.442000;0.6438;0.6021;-1.2482;1.528
21.487000;0.6151;0.7061;-1.3850;1.672
21.489000;0.3929;0.7624;-1.4131;1.653
21.490000;0.2103;0.8414;-1.5073;1.739
21.492000;0.1958;0.9620;-1.6137;1.889
21.492000;0.1579;1.0602;-1.7418;2.045
21.502000;0.0632;1.1445;-1.8390;2.167
21.511000;0.0572;1.2293;-2.0069;2.354
21.521000;0.1000;1.2347;-2.2048;2.529
21.532000;0.1586;1.1713;-2.3548;2.635
21.542000;0.2210;1.1594;-2.3420;2.623
21.584000;0.3748;1.0814;-2.3927;2.652
21.585000;0.5777;0.8618;-2.2219;2.452
21.586000;0.5733;0.5697;-1.9014;2.066
21.587000;0.4770;0.4591;-1.6178;1.748
21.591000;0.3146;0.5509;-1.3278;1.472
21.601000;0.2086;0.5073;-0.8133;0.981
21.611000;0.2859;0.5618;-0.7856;1.007
21.622000;0.2497;0.5744;-0.6977;0.938
21.632000;0.0852;0.4266;-0.5536;0.704
21.641000;-0.2423;0.1622;-0.3440;0.451
21.689000;-0.4583;-0.1740;-0.0092;0.490
21.692000;-0.4036;-0.6064;0.8184;1.096
21.693000;-0.3156;-0.9267;2.0169;2.242
21.695000;-0.0941;-0.9602;2.9503;3.104
21.697000;0.0894;-0.7205;3.5963;3.669
21.702000;0.0582;-0.4145;4.0662;4.088
21.711000;-0.0295;-0.2635;4.0156;4.024
21.722000;-0.1746;-0.5808;3.5739;3.625
21.732000;-0.4608;-1.2510;3.3468;3.603
21.742000;-0.7590;-1.8948;3.1176;3.726
21.774000;-0.8204;-2.3653;3.1723;4.041
21.776000;-0.7281;-2.3819;4.1676;4.855
21.778000;-0.2913;-1.3323;4.2374;4.452
21.781000;0.0322;-0.7101;3.7363;3.803
21.791000;0.3710;-0.2665;2.9349;2.970
21.801000;0.7060;0.0492;2.1034;2.219
21.811000;0.8744;0.0077;1.0126;1.338
21.821000;1.0905;-0.0091;-0.0503;1.092
21.832000;1.0495;-0.2029;-1.0851;1.523
21.842000;0.8696;-0.3856;-1.8808;2.108
21.878000;0.6880;-0.5068;-2.3448;2.496
21.879000;0.4822;-0.7973;-2.4746;2.644
21.880000;0.2793;-1.0119;-2.3430;2.567
21.882000;0.1367;-0.9806;-1.7623;2.021
21.891000;0.0572;-0.6997;-1.0782;1.287
21.901000;0.0119;-0.3393;-0.5589;0.654
21.911000;-0.0564;0.0323;-0.3768;0.382
21.921000;-0.2261;0.2922;-0.6504;0.748
21.931000;-0.3939;0.4182;-1.2914;1.413
21.941000;-0.4986;0.4955;-2.0881;2.203
21.961000;-0.5061;0.6645;-2.8368;2.957
21.963000;-0.4837;0.9141;-3.3556;3.511
22.008000;-0.5020;1.0919;-3.5963;3.792
22.010000;-0.3176;1.2082;-3.6170;3.827
22.012000;-0.1685;1.3055;-3.4696;3.711
22.014000;-0.0499;1.3026;-3.2119;3.466
22.015000;-0.0566;1.1169;-2.8157;3.030
22.021000;-0.0154;0.9244;-2.1672;2.356
22.031000;0.0351;0.7356;-1.5347;1.702
22.041000;0.0335;0.5421;-0.8666;1.023
22.058000;0.0365;0.3695;-0.2060;0.425
22.062000;0.0600;0.1764;0.4282;0.467
22.118000;-0.0114;0.0236;0.9882;0.989
22.120000;-0.0666;0.0340;1.4981;1.500
22.121000;-0.0709;0.1002;2.1159;2.119
22.122000;0.0485;0.1314;2.0753;2.080
22.123000;0.0681;-0.0215;1.9905;1.992
22.125000;0.0813;-0.1555;1.9416;1.950
22.131000;-0.0880;-0.2786;2.1021;2.122
22.141000;-0.4070;-0.3688;2.4312;2.492
22.156000;-0.7690;-0.4153;2.7098;2.847
22.161000;-0.9458;-0.2777;2.6725;2.848
22.189000;-0.8617;0.0996;2.1961;2.361
22.192000;-0.5045;0.3248;1.4712;1.589
22.193000;0.0926;0.3578;0.6988;0.791
22.203000;0.7453;0.3144;0.1708;0.827
22.211000;1.3250;0.3926;0.3379;1.423
22.221000;1.8892;0.3897;1.1260;2.234
22.231000;2.0872;0.0668;2.0557;2.930
22.242000;1.7479;-0.7852;2.9578;3.524
22.259000;0.7097;-1.2900;3.9539;4.219
22.262000;-0.4532;-1.2390;4.4923;4.682
22.312000;-1.4837;-1.0518;4.2765;4.647
22.315000;-2.1833;-1.0882;3.2239;4.043
22.318000;-2.6050;-1.1606;1.8007;3.373
22.319000;-2.7182;-1.2475;0.2795;3.004
22.321000;-2.4998;-1.1909;-0.7604;2.871
22.322000;-2.1522;-1.1546;-1.5080;2.870
22.331000;-1.9936;-1.2627;-1.8613;3.006
22.341000;-1.7942;-1.3075;-1.7067;2.800
22.385000;-1.3743;-1.1083;-1.0386;2.048
22.387000;-0.8329;-0.7895;-0.1133;1.153
22.388000;-0.4176;-0.5124;0.6822;0.950
22.388000;-0.2079;-0.2389;1.0678;1.114
22.391000;-0.1444;-0.0931;1.0041;1.019
22.402000;0.0170;0.0944;0.5091;0.518
22.411000;0.1471;0.2628;-0.3237;0.442
22.421000;0.2157;0.3965;-1.4068;1.477
22.431000;0.0242;0.6132;-3.5000;3.553
22.442000;-0.1565;0.6057;-4.2199;4.266
22.460000;-0.2449;0.5691;-4.5911;4.633
22.465000;-0.1973;0.5750;-4.7489;4.788
22.508000;-0.1227;0.6072;-4.4792;4.522
22.509000;0.0097;0.6983;-3.8059;3.869
22.511000;0.1600;0.7662;-2.7002;2.811
22.512000;0.2869;0.6906;-1.3679;1.559
22.513000;0.5781;0.5864;-0.4609;0.944
22.522000;0.7600;0.3730;0.5165;0.992
22.531000;0.8290;0.0515;1.3870;1.617
22.541000;0.6143;-0.0638;2.1191;2.207
22.559000;0.1650;-0.1596;2.4692;2.480
22.563000;-0.1999;-0.2079;2.4047;2.422
22.613000;-0.2702;-0.2425;1.9833;2.016
22.615000;-0.2221;-0.1699;1.4207;1.448
22.615000;-0.2179;-0.2033;0.7294;0.788
22.617000;-0.2093;-0.2753;0.2062;0.403
22.618000;-0.1486;-0.2957;-0.1728;0.373
22.624000;-0.0701;-0.3807;-0.2503;0.461
22.631000;0.0721;-0.5552;0.1310;0.575
22.641000;0.2832;-0.5468;0.8943;1.086
22.657000;0.6010;-0.3272;1.4843;1.634
22.661000;0.8264;-0.1080;1.9949;2.162
22.695000;0.8169;0.0169;2.1873;2.335
22.697000;0.6422;0.1270;2.1562;2.253
22.698000;0.2662;-0.0200;1.9162;1.935
22.705000;-0.1689;-0.1782;1.6669;1.685
22.711000;-0.5541;-0.4839;1.5146;1.684
22.721000;-0.6327;-0.6879;1.7099;1.949
22.731000;-0.5359;-0.7886;2.0422;2.254
22.741000;-0.2952;-0.7535;2.2133;2.357
22.756000;0.0817;-0.5187;2.2532;2.314
22.761000;0.8092;-0.1684;1.7114;1.901
22.799000;1.0633;-0.1632;1.3108;1.696
22.801000;1.3056;-0.0952;0.7896;1.529
22.802000;1.3592;-0.0466;0.1773;1.372
22.804000;1.1478;-0.1873;-0.3074;1.203
22.811000;0.8262;-0.4489;-0.6979;1.171
22.821000;0.3924;-0.7335;-0.8067;1.159
22.831000;0.0440;-0.8474;-0.9024;1.239
22.841000;-0.1834;-0.7258;-1.0151;1.261
22.858000;-0.2646;-0.3971;-1.1624;1.257
22.862000;-0.1887;-0.1102;-1.1765;1.197
22.894000;-0.0029;0.1461;-1.4219;1.429
22.896000;0.1400;0.3316;-1.6625;1.701
22.897000;0.3658;0.5071;-1.7874;1.894
22.903000;0.5849;0.5830;-1.9175;2.088
22.912000;0.7126;0.7012;-2.0809;2.309
22.922000;0.7485;0.9253;-2.1152;2.427
22.931000;0.6955;1.1109;-2.0087;2.398
22.941000;0.6972;1.2755;-1.8587;2.360
22.958000;0.8611;1.4645;-1.7117;2.412
22.963000;0.7921;1.3435;-1.8081;2.388
23.009000;0.7363;1.2450;-1.8712;2.365
23.011000;0.6556;1.1219;-1.7433;2.174
23.013000;0.4728;0.9899;-1.5918;1.933
23.015000;0.3080;0.7704;-1.3960;1.624
23.016000;0.2604;0.6085;-1.2003;1.371
23.021000;0.3277;0.4637;-0.9220;1.083
23.031000;0.4424;0.4208;-0.5015;0.790
23.041000;0.5657;0.3761;-0.1640;0.699
23.057000;0.6579;0.4010;-0.1272;0.781
23.061000;0.6362;0.4187;-0.2009;0.788
23.092000;0.5999;0.3479;0.0048;0.694
23.093000;0.5821;0.2301;0.5049;0.804
23.094000;0.5134;-0.3396;2.0384;2.129
23.102000;0.2478;-0.6698;2.7445;2.836
23.111000;-0.1659;-1.0641;3.2963;3.468
23.121000;-0.4042;-1.1779;3.6663;3.872
23.131000;-0.5457;-0.8764;3.6549;3.798
23.141000;-0.6859;-0.5953;3.1618;3.290
23.157000;-0.7816;-0.6114;2.4327;2.627
23.161000;-0.6977;-0.8026;1.7776;2.071
23.197000;-0.5385;-1.0145;1.6837;2.038
23.198000;-0.3276;-1.1424;2.1816;2.484
23.199000;-0.0332;-0.9261;2.9139;3.058
23.208000;0.2587;-0.5652;3.3535;3.411
23.212000;0.2699;-0.4168;3.2799;3.317
23.221000;-0.2006;-0.4703;2.6717;2.720
23.231000;-0.5708;-0.3634;1.6202;1.756
23.241000;-1.0244;-0.2896;0.2707;1.098
23.252000;-1.3084;-0.2739;-0.6978;1.508
23.262000;-1.6430;-0.4554;-1.3640;2.183
23.307000;-2.0064;-0.7500;-1.4751;2.601
23.309000;-2.2925;-0.9150;-1.1534;2.724
23.311000;-2.4448;-1.0295;-0.5121;2.702
23.312000;-2.2922;-1.0896;0.3854;2.567
23.313000;-1.7803;-1.0477;1.1643;2.371
23.321000;-1.1157;-0.9162;1.6713;2.209
23.331000;-0.4438;-0.6499;1.6291;1.809
23.341000;0.0502;-0.3952;1.0353;1.109
23.351000;0.3985;-0.1940;0.1541;0.469
23.362000;0.6168;0.0030;-0.7229;0.950
23.400000;0.7774;0.1948;-1.4615;1.667
23.401000;0.8338;0.4523;-2.0720;2.279
23.403000;0.7339;0.7289;-2.5697;2.770
23.404000;0.6112;0.9877;-2.9917;3.209
23.411000;0.4607;1.2471;-3.3877;3.639
23.421000;0.1675;1.3438;-4.0268;4.248
23.431000;-0.0627;1.4972;-4.1654;4.427
23.441000;-0.1189;1.4745;-4.2762;4.525
23.451000;-0.0419;1.4989;-4.3793;4.629
23.462000;0.0729;1.4596;-4.3202;4.561
23.509000;0.1649;1.3045;-3.7830;4.005
23.511000;0.2714;1.1136;-2.9233;3.140
23.512000;0.5093;0.9775;-1.9281;2.221
23.513000;0.5772;0.8733;-0.7387;1.281
23.514000;0.7266;0.7717;0.3837;1.127
23.522000;0.8367;0.6026;1.4582;1.786
23.531000;0.8271;0.3470;2.1638;2.342
23.541000;0.6849;0.0424;2.6540;2.741
23.551000;0.4587;-0.2456;2.8891;2.936
23.561000;0.2240;-0.5933;3.0491;3.114
23.618000;0.1275;-0.9779;3.3638;3.505
23.620000;0.0803;-1.2846;3.7662;3.980
23.622000;0.1113;-1.4183;4.2909;4.521
23.624000;0.3124;-1.4145;4.7510;4.967
23.625000;0.6604;-1.2356;4.8090;5.009
23.627000;0.9142;-1.0195;4.7088;4.904
23.631000;1.0045;-0.6998;4.1512;4.328
23.641000;0.9212;-0.4972;3.4008;3.558
23.652000;0.8052;-0.5726;2.7795;2.950
23.661000;0.7881;-0.8110;2.4954;2.740
23.696000;0.8174;-0.7256;2.3059;2.552
23.698000;0.7319;-0.3132;2.0419;2.192
23.698000;0.4655;-0.2053;1.6604;1.737
23.701000;0.2559;-0.4454;1.0673;1.184
23.711000;0.0546;-0.6368;0.4456;0.779
23.721000;-0.0029;-0.6606;-0.1228;0.672
23.731000;0.1324;-0.6156;-0.6275;0.889
23.741000;0.2845;-0.5745;-0.9931;1.182
23.751000;0.5014;-0.3878;-1.4064;1.543
23.762000;0.4785;-0.4814;-1.3910;1.548
23.811000;0.3011;-0.6553;-1.2092;1.408
23.813000;0.0706;-0.8410;-0.9028;1.236
23.814000;-0.1241;-0.9189;-0.6775;1.148
23.815000;-0.4630;-0.9580;-0.6494;1.247
23.816000;-0.7567;-0.9500;-0.8133;1.462
23.821000;-0.7565;-0.7630;-1.0292;1.488
23.831000;-0.6432;-0.4033;-1.2646;1.475
23.842000;-0.5582;-0.0187;-1.5731;1.669
23.852000;-0.4836;0.3138;-2.0137;2.095
23.862000;-0.3541;0.6407;-2.3832;2.493
23.908000;-0.1165;0.9809;-2.6962;2.871
23.910000;0.0172;1.2230;-3.0810;3.315
23.912000;0.1335;1.4124;-3.2888;3.582
23.913000;0.3148;1.5979;-3.4698;3.833
23.914000;0.4497;1.6871;-3.6277;4.026
23.921000;0.6757;1.6950;-3.7021;4.127
23.931000;0.8245;1.5511;-3.6588;4.059
23.941000;0.9129;1.2494;-3.4867;3.815
23.951000;0.8523;0.8344;-3.0227;3.249
23.961000;0.6655;0.4514;-2.3307;2.465
24.020000;0.3318;0.0647;-1.4407;1.480
24.022000;-0.0891;-0.3446;-0.3834;0.523
24.023000;-0.3549;-0.6776;0.6593;1.010
24.024000;-0.5035;-0.8063;1.4501;1.734
24.025000;-0.5124;-0.6786;2.0422;2.212
24.026000;-0.3709;-0.4096;2.4718;2.533
24.031000;-0.2650;-0.2519;2.4219;2.449
24.042000;-0.2717;-0.2751;2.1244;2.159
24.054000;-0.2492;-0.3787;1.9708;2.022
24.066000;-0.1377;-0.5047;2.0876;2.152
24.124000;-0.0626;-0.6633;2.3896;2.481
24.126000;-0.0805;-0.8243;3.4474;3.545
24.127000;-0.4829;-0.9430;3.9872;4.126
24.128000;-0.5280;-0.7665;4.1122;4.216
24.130000;-0.2059;-0.3320;3.9047;3.924
24.131000;0.0459;0.0027;3.2898;3.290
24.132000;0.0882;-0.1610;2.5990;2.606
24.141000;0.0439;-0.6631;1.9803;2.089
24.152000;-0.0430;-0.9933;1.7255;1.991
24.164000;-0.2058;-1.1787;1.8107;2.170
24.216000;-0.4131;-1.3063;2.0324;2.451
24.218000;-0.7513;-1.2847;2.0667;2.547
24.219000;-1.2353;-1.0603;2.0021;2.580
24.221000;-1.5897;-0.7350;1.4701;2.287
24.224000;-1.8438;-0.4676;0.4764;1.961
24.226000;-2.0498;-0.3389;-0.5457;2.148
24.231000;-2.0746;-0.3053;-1.1879;2.410
24.242000;-1.9315;-0.2608;-1.3616;2.378
24.251000;-1.6765;-0.1693;-1.3768;2.176
24.287000;-1.1656;-0.0822;-1.4225;1.841
24.289000;-0.6363;-0.0477;-1.2188;1.376
24.290000;-0.1117;-0.0427;-0.7815;0.791
24.291000;0.3467;-0.1085;-0.4021;0.542
24.301000;0.5248;-0.2534;-0.2942;0.653
24.311000;0.4939;-0.2885;-0.6674;0.879
24.322000;0.4184;-0.0822;-1.0974;1.177
24.331000;0.3598;0.1891;-1.4392;1.496
24.342000;0.3780;0.4121;-1.6254;1.719
24.351000;0.5046;0.5914;-1.9506;2.100
24.361000;0.7301;0.7867;-2.4303;2.657
24.413000;0.7988;0.9095;-2.9006;3.143
24.415000;0.6911;1.0097;-3.2835;3.504
24.417000;0.5532;1.1239;-3.4785;3.697
24.418000;0.4730;1.2485;-3.5347;3.778
24.420000;0.4256;1.2778;-3.5275;3.776
24.421000;0.2093;0.9875;-3.3108;3.461
24.431000;0.0445;0.7341;-2.7933;2.889
24.444000;-0.0880;0.5286;-1.9345;2.007
24.452000;-0.1987;0.3283;-0.8670;0.948
24.480000;-0.2638;0.0746;0.2774;0.390
24.482000;-0.2109;-0.1264;1.3632;1.385
24.484000;-0.1653;-0.2385;2.2337;2.252
24.492000;-0.2030;-0.3237;2.8156;2.841
24.501000;-0.2136;-0.2977;3.2897;3.310
24.512000;-0.0512;-0.1981;3.4740;3.480
24.522000;0.1269;-0.0945;3.3335;3.337
24.531000;0.2391;-0.0592;3.0337;3.044
24.542000;0.2668;-0.1605;2.7001;2.718
24.551000;0.2322;-0.4292;2.4659;2.514
24.563000;0.3429;-0.6254;2.4231;2.526
24.615000;0.5553;-0.6686;2.6592;2.798
24.617000;0.7769;-0.6177;2.9528;3.115
24.618000;0.9243;-0.6466;3.1388;3.335
24.620000;0.9487;-0.6448;3.0507;3.259
24.622000;0.8742;-0.6344;2.6803;2.890
24.623000;0.7134;-0.8596;2.3256;2.580
24.664000;0.5138;-1.1872;2.1411;2.502
24.665000;0.2946;-1.4480;2.1558;2.614
24.666000;0.2622;-1.6276;2.4898;2.986
24.667000;0.3987;-1.5964;2.8058;3.253
24.684000;0.5644;-1.3552;2.8541;3.209
24.689000;0.8297;-0.9423;2.5564;2.848
24.695000;1.0136;-0.5692;1.7931;2.137
24.701000;0.9499;-0.3018;0.8847;1.333
24.711000;0.7894;-0.0726;-0.0779;0.797
24.722000;0.6333;0.0573;-1.0670;1.242
24.731000;0.6509;0.0060;-1.8480;1.959
24.742000;0.8027;-0.0104;-2.4745;2.601
24.751000;0.5263;-0.7810;-2.3838;2.563
24.761000;0.3332;-1.1321;-1.4394;1.861
24.797000;0.1030;-1.1979;-0.5066;1.305
24.799000;-0.1671;-0.9645;0.1777;0.995
24.800000;-0.3442;-0.6088;0.3179;0.768
24.801000;-0.3817;-0.2278;0.1759;0.478
24.811000;-0.3987;0.1173;-0.2941;0.509
24.822000;-0.4047;0.4510;-1.1281;1.281
24.831000;-0.3787;0.7731;-1.9671;2.147
24.841000;-0.3583;1.0497;-2.5981;2.825
24.851000;-0.3508;1.1924;-3.0726;3.315
24.862000;-0.3001;1.3317;-3.5021;3.759
24.899000;-0.2575;1.4910;-3.8469;4.134
24.901000;-0.1546;1.6690;-3.9779;4.317
24.902000;-0.0030;1.7526;-3.9537;4.325
24.903000;0.1203;1.6721;-3.7826;4.137
24.911000;0.1816;1.5027;-3.5733;3.881
24.922000;0.1645;1.2933;-3.2467;3.499
24.931000;0.1411;0.9997;-2.7883;2.965
24.941000;0.1504;0.7052;-2.2651;2.377
24.951000;0.0863;0.4010;-1.7200;1.768
24.967000;-0.0046;0.1178;-1.0466;1.053
25.001000;-0.0521;-0.1356;-0.3764;0.403
25.002000;-0.0497;-0.3342;0.2185;0.402
25.004000;0.0285;-0.3771;0.7610;0.850
25.005000;0.0911;-0.3951;1.1505;1.220
25.011000;0.1530;-0.3698;1.4157;1.471
25.022000;0.1555;-0.4264;1.4990;1.566
25.031000;0.1089;-0.6597;1.6279;1.760
25.041000;0.1071;-0.9182;1.8801;2.095
25.051000;0.0590;-1.0458;2.2338;2.467
25.062000;-0.1111;-1.1119;2.7490;2.967
25.101000;-0.3612;-1.1075;3.0282;3.245
25.103000;-0.6889;-0.3671;2.7256;2.835
25.104000;-0.7334;-0.0480;2.3129;2.427
25.105000;-0.7252;-0.1760;1.9038;2.045
25.111000;-0.6209;-0.7227;1.6851;1.936
25.123000;-0.4647;-1.2993;1.8098;2.276
25.131000;-0.3627;-1.7986;2.1410;2.820
25.141000;-0.3478;-2.1185;2.7407;3.481
25.151000;-0.5723;-2.0673;3.4105;4.029
25.161000;-0.8277;-1.5948;3.8469;4.246
25.201000;-1.1088;-1.1867;3.6229;3.970
25.203000;-1.2462;-1.0101;2.5627;3.023
25.204000;-1.3597;-0.8608;1.1031;1.951
25.206000;-1.5530;-0.7050;-0.0701;1.707
25.211000;-1.6504;-0.7281;-0.8421;1.991
25.223000;-1.5671;-0.8255;-1.3387;2.220
25.231000;-1.2561;-0.7993;-1.5059;2.118
25.241000;-0.9817;-0.6175;-1.1105;1.606
25.251000;-0.7739;-0.3821;-0.4947;0.995
25.262000;-0.5496;-0.1005;-0.0010;0.559
25.297000;-0.3882;0.0411;0.1720;0.427
25.298000;-0.1913;0.2432;0.2699;0.411
25.299000;-0.0607;0.4711;0.1968;0.514
25.301000;0.0796;0.7473;-0.1276;0.762
25.311000;0.2628;1.0224;-0.6198;1.224
25.322000;0.3817;1.2360;-1.1784;1.750
25.331000;0.4222;1.3349;-1.7322;2.227
25.341000;0.4853;1.4370;-2.1234;2.609
25.360000;0.7261;1.6437;-2.3119;2.928
25.406000;0.7296;1.5683;-2.4985;3.039
25.408000;0.6926;1.4682;-2.8240;3.257
25.409000;0.6319;1.3199;-3.1541;3.477
25.411000;0.5405;1.2242;-3.4503;3.701
25.413000;0.4016;0.8606;-3.4194;3.549
25.423000;0.4938;0.6125;-3.0386;3.139
25.431000;0.4929;0.4127;-2.4254;2.509
25.442000;0.4426;0.2475;-1.8144;1.884
25.452000;0.4260;0.0811;-1.2370;1.311
25.462000;0.4575;-0.0595;-0.7433;0.875
25.503000;0.5624;-0.2023;-0.2987;0.668
25.504000;0.5404;-0.3929;0.1700;0.689
25.505000;0.4586;-0.5352;0.5919;0.920
25.506000;0.4056;-0.4909;1.0020;1.187
25.511000;0.4016;-0.4876;1.3679;1.507
25.523000;0.4340;-0.5979;1.6081;1.770
25.531000;0.4203;-0.8849;1.8089;2.057
25.541000;0.4380;-1.2607;2.0827;2.474
25.551000;0.4418;-1.3165;2.2906;2.679
25.561000;0.2293;-0.8592;2.3619;2.524
25.592000;-0.0552;-0.3803;2.3864;2.417
25.593000;-0.2035;-0.3471;2.1043;2.142
25.595000;-0.3071;-0.5816;1.6821;1.806
25.601000;-0.5235;-0.8730;1.3809;1.716
25.611000;-0.7349;-1.6154;1.4493;2.291
25.621000;-0.6343;-2.3993;2.3422;3.412
25.631000;-0.4937;-3.1191;3.7445;4.898
25.642000;0.6462;-2.0217;4.7228;5.178
25.651000;1.0511;-1.3638;5.1503;5.431
25.661000;1.1752;-0.9075;4.7365;4.964
25.671000;1.2279;-0.4776;3.5697;3.805
25.690000;1.1942;-0.3570;1.9827;2.342
25.692000;1.1455;-0.7465;0.7822;1.575
25.701000;1.3400;-0.7935;-0.4736;1.628
25.711000;1.6366;0.1271;-1.5318;2.245
25.721000;0.1861;-1.5851;-2.2176;2.732
25.731000;0.7452;-0.0145;-2.3538;2.469
25.741000;-0.4999;-1.5747;-2.2561;2.796
25.751000;0.6137;0.2108;-1.5294;1.661
25.761000;0.0928;-0.9012;-1.1742;1.483
25.771000;0.3755;-0.3716;-1.1796;1.293
25.786000;0.8146;0.5407;-1.0119;1.407
25.796000;0.7391;0.6711;-0.9562;1.382
25.801000;0.1975;0.4692;-1.0646;1.180
25.811000;-0.3614;0.4699;-1.4332;1.551
25.821000;-0.6143;0.7626;-1.9029;2.140
25.831000;-0.5245;1.0744;-2.2764;2.571
25.841000;-0.3450;1.3486;-2.5688;2.922
25.851000;-0.2695;1.4778;-2.7741;3.155
25.861000;-0.2777;1.5069;-2.8611;3.246
25.871000;-0.2697;1.4637;-2.6812;3.067
25.892000;-0.1791;1.3750;-2.2250;2.622
25.894000;0.0553;1.2692;-1.6361;2.071
25.901000;0.3186;1.1298;-1.0056;1.546
25.912000;-0.0535;0.1684;-0.4266;0.462
25.921000;0.3425;0.8827;0.0840;0.950
25.931000;0.2635;0.3516;0.4448;0.625
25.941000;0.5993;0.8275;0.8053;1.301
25.951000;0.1724;-0.0912;1.1802;1.196
25.962000;0.4826;0.0735;1.3417;1.428
25.972000;0.6925;0.2622;1.3523;1.542
26.001000;0.7434;0.3407;1.1771;1.433
26.002000;0.8732;0.4945;1.0295;1.438
26.003000;0.8927;0.4945;1.0136;1.438
26.011000;0.5299;-0.0342;1.1009;1.222
26.021000;0.0954;-0.3311;1.3416;1.385
26.031000;0.3345;0.0650;1.6496;1.684
26.041000;-0.0441;-0.5611;2.3218;2.389
26.051000;-0.0865;-0.0852;3.0911;3.094
26.061000;-0.0115;0.3726;3.2394;3.261
26.072000;-0.1442;0.8525;3.2872;3.399
26.103000;0.2739;0.2763;2.6922;2.720
26.105000;0.1333;-0.2792;2.2038;2.225
26.106000;0.0741;-1.1803;2.1619;2.464
26.112000;0.2874;-1.4147;3.0656;3.388
26.121000;-0.3605;-2.0863;4.0385;4.560
26.131000;-0.5992;-1.7552;4.8137;5.159
26.141000;-0.5780;-1.0593;4.5679;4.725
26.151000;-0.8825;-1.1131;3.5238;3.799
26.161000;-0.9152;-1.0582;2.2550;2.654
26.171000;-0.7089;-0.5415;1.0415;1.371
26.202000;-0.9217;-0.5389;0.0078;1.068
26.203000;-1.5697;-1.5205;-0.7501;2.310
26.205000;-0.6831;0.1356;-1.1475;1.342
26.211000;-1.4938;-1.1657;-1.3449;2.324
26.221000;-0.2048;0.2924;-1.4027;1.447
26.231000;-0.9710;-1.4267;-1.2000;2.102
26.244000;-0.1332;-0.0140;-1.2205;1.228
26.251000;-0.0688;0.0326;-1.3504;1.353
26.262000;-0.5549;-0.8321;-1.4708;1.779
26.271000;-0.0892;-0.0302;-1.6845;1.687
26.281000;0.5792;0.9444;-2.0766;2.354
26.319000;0.6350;0.8863;-2.5548;2.778
26.322000;0.3378;0.3868;-2.9969;3.041
26.324000;0.2115;0.2075;-3.2941;3.307
26.326000;0.2999;0.4586;-3.5554;3.597
26.331000;0.3688;0.8242;-3.7221;3.830
26.341000;0.3546;1.0518;-3.7535;3.914
26.352000;0.3008;1.1204;-3.7023;3.880
26.366000;0.2821;1.1128;-3.5182;3.701
26.371000;0.1334;1.0043;-3.1916;3.349
26.414000;-0.0688;0.7467;-2.9140;3.009
26.416000;-0.1935;0.4669;-2.5873;2.636
26.417000;-0.2704;0.2077;-1.3460;1.389
26.418000;0.0664;0.8590;-0.5799;1.039
26.421000;-0.3104;0.0237;0.1456;0.344
26.431000;-0.0761;0.6687;0.7261;0.990
26.441000;-0.7010;-0.3410;1.1583;1.396
26.452000;-0.4502;0.0056;1.3234;1.398
26.461000;-0.3195;0.2363;1.3533;1.410
26.471000;-0.3240;0.2291;1.3126;1.371
26.481000;-0.2061;0.2067;1.2109;1.246
26.523000;0.0980;0.2976;1.2110;1.251
26.525000;0.3550;0.2145;1.4710;1.528
26.525000;0.0493;-0.5667;2.0469;2.124
26.526000;0.0813;-0.7175;2.7161;2.810
26.531000;0.5774;-0.1893;3.2271;3.284
26.542000;-0.0678;-0.5925;3.7128;3.760
26.551000;0.3415;0.1054;3.5796;3.597
26.563000;-0.1437;-0.2824;3.2380;3.253
26.571000;-0.2361;-0.3514;2.5591;2.594
26.603000;-0.9177;-0.8844;2.2849;2.616
26.605000;-0.9308;-1.5838;2.5736;3.162
26.606000;-0.5955;-1.9975;3.7927;4.328
26.614000;-0.1511;-1.8045;4.7976;5.128
26.621000;0.5169;-1.2571;5.3971;5.566
26.631000;1.1292;-0.6543;5.3790;5.535
26.642000;1.4133;-0.2457;4.2799;4.514
26.651000;1.3780;-0.0274;2.4659;2.825
26.662000;1.2360;0.0776;0.8996;1.531
26.671000;1.0682;0.1842;-0.1823;1.099
26.682000;0.8300;0.0679;-1.0551;1.344
26.748000;0.6547;-0.0280;-1.8224;1.937
26.749000;0.4725;-0.0759;-2.2935;2.343
26.751000;0.2628;-0.0986;-2.5034;2.519
26.752000;0.1126;-0.1026;-2.3311;2.336
26.753000;0.1319;0.0112;-2.0662;2.070
26.754000;0.1586;0.3776;-1.9255;1.969
26.756000;0.1174;0.5686;-2.0658;2.146
26.762000;0.1599;0.7922;-2.2741;2.413
26.771000;0.2436;0.9124;-2.4788;2.653
26.781000;0.2215;1.0587;-2.7231;2.930
26.818000;0.1542;1.2343;-3.0253;3.271
26.821000;0.1341;1.3958;-3.2751;3.563
26.822000;0.1603;1.4292;-3.2858;3.587
26.825000;0.1907;1.3567;-3.1614;3.446
26.832000;0.2333;1.3254;-3.0599;3.343
26.842000;0.2067;1.3394;-3.0614;3.348
26.851000;0.1500;1.2620;-3.1083;3.358
26.861000;0.1028;1.0776;-2.9862;3.176
26.871000;0.1420;0.9061;-2.6375;2.792
26.881000;0.1383;0.6781;-2.0623;2.175
26.934000;0.0936;0.3992;-1.3073;1.370
26.935000;0.0605;0.1480;-0.4660;0.493
26.936000;0.0430;-0.0770;0.4245;0.434
26.936000;-0.0026;-0.1909;1.1189;1.135
26.937000;-0.0391;-0.1374;1.5933;1.600
26.943000;0.0567;0.0951;1.8574;1.861
26.951000;0.1303;0.2347;2.0297;2.047
26.961000;0.1590;0.1246;2.2212;2.230
26.971000;0.1109;-0.1615;2.5000;2.508
26.981000;0.0536;-0.3665;2.9565;2.980
27.038000;-0.0665;-0.4519;3.2951;3.327
27.041000;-0.2811;-0.4608;3.4164;3.459
27.042000;-0.4523;-0.4209;3.3350;3.392
27.044000;-0.5827;-0.4803;3.2429;3.330
27.045000;-0.7794;-0.9089;3.2047;3.421
27.047000;-1.0302;-1.7742;3.1739;3.779
27.051000;-1.0247;-2.4233;3.5634;4.429
27.068000;-0.5772;-2.2678;4.3742;4.961
27.071000;0.3188;-0.7539;5.5524;5.612
27.106000;0.2815;-0.1808;4.8106;4.822
27.109000;0.0006;0.1460;3.0108;3.014
27.110000;-0.1823;0.3029;1.2030;1.254
27.117000;-0.4211;0.3743;-0.1030;0.573
27.121000;-0.7275;0.3427;-1.4244;1.636
27.131000;-1.0057;0.2354;-2.5300;2.733
27.143000;-1.1067;0.1243;-3.1518;3.343
27.151000;-1.0043;0.0004;-3.3510;3.498
27.161000;-0.7854;-0.1895;-3.0456;3.151
27.171000;-0.5771;-0.4093;-2.3543;2.458
27.183000;-0.2380;-0.4159;-1.5774;1.649
27.240000;0.0253;-0.2592;-0.8933;0.930
27.241000;0.1939;-0.0589;-0.6066;0.640
27.243000;0.4603;0.0841;-0.7265;0.864
27.244000;0.7982;0.2498;-1.1418;1.415
27.245000;1.1145;0.4428;-1.7207;2.097
27.246000;1.3259;0.6410;-2.2960;2.728
27.251000;1.3887;0.6886;-2.7024;3.115
27.269000;1.2496;0.7074;-3.0023;3.328
27.271000;1.1005;0.7501;-3.0687;3.345
27.320000;0.9473;0.8000;-3.0094;3.255
27.322000;0.7295;0.7568;-2.8364;3.025
27.325000;0.5768;0.7019;-2.6667;2.817
27.326000;0.4488;0.6102;-2.4992;2.611
27.327000;0.3112;0.4865;-2.2402;2.313
27.332000;0.1312;0.2930;-1.9476;1.974
27.342000;0.0043;0.0782;-1.3568;1.359
27.351000;-0.0955;-0.0694;-0.6775;0.688
27.361000;-0.1130;-0.0767;0.0067;0.137
27.371000;-0.0512;-0.0034;0.7293;0.731
27.381000;0.0862;0.0679;1.2879;1.293
27.435000;0.1950;0.0676;1.6337;1.647
27.437000;0.3570;-0.2904;2.1638;2.212
27.438000;0.3343;-0.6382;2.3205;2.430
27.439000;0.2489;-1.0174;2.5468;2.754
27.440000;0.1378;-1.1670;2.7001;2.945
27.442000;0.0737;-1.0705;2.8607;3.055
27.452000;0.0719;-0.9333;3.1135;3.251
27.464000;0.1206;-0.9608;3.1279;3.274
27.471000;-0.0239;-1.2531;2.9112;3.169
27.517000;-0.4370;-1.6260;2.6641;3.152
27.518000;-0.7265;-1.7736;2.6427;3.265
27.520000;-0.6101;-1.7607;3.0887;3.607
27.521000;-0.2377;-1.6468;3.6047;3.970
27.523000;0.3048;-1.3638;3.9718;4.210
27.531000;0.7456;-0.9212;3.8085;3.989
27.544000;0.8715;-0.6096;3.0601;3.240
27.551000;0.7156;-0.4674;1.9554;2.134
27.561000;0.4999;-0.4558;0.8236;1.066
27.571000;0.3412;-0.4308;-0.1273;0.564
27.582000;0.2338;-0.3766;-0.8484;0.957
27.623000;0.0594;-0.5038;-0.9855;1.108
27.624000;0.0010;-0.5298;-0.9662;1.102
27.626000;-0.1524;-0.4344;-0.8468;0.964
27.627000;-0.3713;-0.3035;-1.0556;1.159
27.632000;-0.5227;-0.0954;-1.4524;1.547
27.641000;-0.6197;0.1155;-1.7734;1.882
27.651000;-0.6039;0.3452;-2.0318;2.148
27.664000;-0.6396;0.5516;-2.2838;2.435
27.671000;-0.6680;0.7061;-2.4993;2.682
27.700000;-0.6302;0.9182;-2.7206;2.940
27.703000;-0.5044;1.0753;-2.9307;3.162
27.704000;-0.2878;1.1916;-3.0785;3.314
27.711000;-0.0595;1.3197;-3.1257;3.393
27.721000;0.2249;1.4409;-3.1455;3.467
27.731000;0.4751;1.4153;-3.0180;3.367
27.742000;0.6659;1.3706;-3.0509;3.410
27.751000;0.5794;1.2857;-3.1267;3.430
27.765000;0.4609;1.1163;-3.0573;3.287
27.771000;0.4004;0.7720;-2.8522;2.982
27.821000;0.3657;0.3392;-2.4325;2.483
27.823000;0.3042;0.0318;-1.6393;1.668
27.827000;0.2488;-0.0817;-0.6882;0.736
27.829000;0.3507;-0.0317;0.1464;0.381
27.830000;0.5731;-0.0027;0.9364;1.098
27.831000;0.7045;-0.0761;1.6362;1.783
27.842000;0.7821;-0.1922;2.1527;2.298
27.852000;0.7795;-0.3453;2.5661;2.704
27.897000;0.6383;-0.6281;3.0666;3.195
27.898000;0.4318;-0.9209;3.5620;3.704
27.900000;0.1120;-1.1034;4.0127;4.163
27.902000;-0.3233;-1.1134;4.3578;4.509
27.903000;-0.7021;-0.8055;4.4492;4.576
27.911000;-0.9017;-0.3350;4.2212;4.329
27.921000;-0.8252;-0.1009;3.7084;3.800
27.931000;-0.5786;-0.1972;3.1097;3.169
27.941000;-0.4135;-0.7067;2.6608;2.784
27.951000;-0.3226;-1.4707;2.7517;3.137
27.967000;-0.2110;-2.1265;3.4094;4.024
27.971000;-0.0883;-2.2400;4.3427;4.887
28.022000;-0.0510;-1.7825;5.1089;5.411
28.025000;-0.2143;-1.1606;5.3698;5.498
28.027000;-0.4099;-0.7798;4.5567;4.641
28.029000;-0.5964;-0.5885;2.8529;2.973
28.030000;-0.8086;-0.3786;1.0086;1.347
28.033000;-1.0469;-0.1892;-0.4807;1.167
28.042000;-1.3101;-0.2803;-1.7997;2.244
28.051000;-1.5143;-0.4367;-2.6986;3.125
28.065000;-1.5684;-0.5299;-3.0796;3.496
28.072000;-0.9556;-0.4574;-2.1064;2.358
28.114000;-0.6014;-0.3332;-1.5170;1.666
28.117000;-0.3439;-0.2194;-1.1555;1.225
28.118000;-0.0040;-0.1857;-0.9570;0.975
28.118000;0.3494;-0.1314;-0.9355;1.007
28.121000;0.6239;-0.0187;-1.1998;1.352
28.131000;0.8864;0.1741;-1.7474;1.967
28.142000;1.0472;0.4065;-2.3820;2.634
28.151000;1.0974;0.5405;-2.8643;3.115
28.165000;1.0291;0.5826;-3.2245;3.435
28.171000;1.0379;0.6196;-3.5010;3.704
28.215000;0.9955;0.5841;-3.6111;3.791
28.218000;0.9745;0.5578;-3.4987;3.674
28.219000;1.0206;0.5161;-3.2701;3.464
28.220000;1.0243;0.5100;-2.7936;3.019
28.221000;0.8855;0.4144;-2.2055;2.412
28.231000;0.7281;0.3397;-1.7617;1.936
28.241000;0.4095;0.2266;-1.4849;1.557
28.251000;0.0426;0.0424;-1.3092;1.311
28.268000;-0.1915;-0.0891;-1.0566;1.077
28.271000;-0.3604;-0.1740;-0.9221;1.005
28.306000;-0.4633;-0.1829;-0.7962;0.939
28.308000;-0.5803;-0.1003;-0.5728;0.822
28.312000;-0.7944;-0.0910;-0.3876;0.889
28.314000;-0.8584;-0.0730;-0.1334;0.872
28.321000;-0.6197;0.0351;0.2652;0.675
28.331000;-0.2579;0.1726;0.7606;0.821
28.341000;0.0396;0.1499;1.3026;1.312
28.351000;0.2471;-0.0385;2.0241;2.039
28.367000;0.5146;-0.2320;2.7718;2.829
28.372000;0.7083;-0.1317;3.4894;3.563
28.413000;0.6085;0.1381;4.1532;4.200
28.416000;0.4572;0.1131;4.5695;4.594
28.417000;0.1557;-0.7434;4.0790;4.149
28.417000;-0.1783;-1.3619;3.9431;4.175
28.421000;-0.3681;-1.7928;4.1711;4.555
28.431000;-0.3001;-1.6857;4.5018;4.816
28.441000;-0.1027;-1.0596;4.4889;4.613
28.451000;0.0821;-0.3746;4.1085;4.126
28.469000;0.1493;0.1190;3.0063;3.012
28.529000;0.0875;0.4538;1.6793;1.742
28.532000;0.1177;0.6678;0.4652;0.822
28.533000;0.1841;0.7192;-0.5799;0.942
28.534000;0.4508;0.6873;-1.7253;1.911
28.535000;0.7546;0.6958;-2.8274;3.008
28.536000;0.7717;0.5910;-3.5978;3.727
28.537000;0.8393;0.3242;-3.8535;3.957
28.541000;0.9782;0.0626;-3.5360;3.669
28.551000;0.9017;-0.2501;-2.6121;2.775
28.567000;0.6748;-0.3143;-1.6358;1.797
28.571000;0.4778;-0.1771;-0.8630;1.002
28.607000;0.3889;0.0224;-0.3533;0.526
28.609000;0.2596;0.2090;-0.1642;0.371
28.610000;0.0541;0.4176;-0.4848;0.642
28.617000;-0.1691;0.6106;-1.2196;1.374
28.621000;-0.4415;0.7398;-2.3306;2.485
28.632000;-0.6325;0.7982;-3.2335;3.390
28.641000;-0.6270;0.9822;-3.6889;3.869
28.651000;-0.5758;1.0966;-3.9477;4.137
28.666000;-0.4866;1.1355;-4.0470;4.231
28.671000;-0.3384;1.1493;-3.8444;4.027
28.711000;-0.1512;1.0471;-3.2885;3.454
28.713000;0.0045;0.9090;-2.5172;2.676
28.714000;0.1080;0.8063;-1.6944;1.880
28.715000;0.1103;0.6741;-0.9256;1.150
28.721000;0.0881;0.4288;-0.1916;0.478
28.731000;0.1758;0.0787;1.0381;1.056
28.741000;0.1576;-0.0000;1.5280;1.536
28.752000;0.1154;-0.0045;1.7918;1.795
28.766000;0.0961;-0.0038;1.9325;1.935
28.771000;0.1592;-0.1106;2.0279;2.037
28.811000;0.2596;-0.2942;2.2192;2.254
28.813000;0.2517;-0.5162;2.3700;2.439
28.814000;0.0635;-0.7795;2.5304;2.648
28.814000;-0.2459;-1.0311;2.8703;3.060
28.821000;-0.4238;-1.0349;3.0880;3.284
28.832000;-0.4173;-0.7703;3.2073;3.325
28.841000;-0.2824;-0.6238;3.1456;3.219
28.852000;-0.0094;-0.5616;2.8958;2.950
28.867000;0.2475;-0.5712;2.5823;2.656
28.871000;0.4559;-0.9778;2.5943;2.810
28.908000;0.4234;-1.9126;3.2787;3.819
28.910000;0.2094;-2.7888;4.1505;5.005
28.913000;-0.0913;-3.0304;5.0772;5.914
28.916000;-0.4572;-2.5829;5.8330;6.396
28.921000;-0.6867;-1.9674;5.8435;6.204
28.932000;-0.9044;-1.6658;4.5618;4.940
28.941000;-1.2322;-1.6115;2.5224;3.237
28.951000;-1.3051;-1.4904;0.8670;2.162
28.967000;-1.2039;-1.3730;-0.2692;1.846
28.971000;-1.2368;-1.3284;-1.0296;2.087
29.033000;-1.3949;-1.3123;-1.4515;2.403
29.035000;-1.5505;-1.2539;-1.6041;2.559
29.036000;-1.5211;-1.2399;-1.4145;2.419
29.038000;-1.2594;-1.2146;-1.2096;2.127
29.039000;-1.0322;-1.1230;-1.1762;1.926
29.040000;-0.9212;-0.9459;-1.4122;1.933
29.042000;-0.7619;-0.6811;-1.7535;2.030
29.051000;-0.6605;-0.4708;-2.2251;2.368
29.067000;-0.4741;-0.2582;-2.8649;2.915
29.071000;0.0400;-0.0364;-3.1429;3.143
29.107000;0.3582;0.0226;-3.4647;3.483
29.110000;0.5863;0.0991;-3.8212;3.867
29.112000;0.6319;0.2026;-4.0342;4.088
29.113000;0.5751;0.4618;-4.0164;4.084
29.121000;0.4829;0.6938;-3.8611;3.953
29.132000;0.5443;0.7716;-3.7190;3.837
29.141000;0.6654;0.7978;-3.6522;3.797
29.151000;0.7152;0.8335;-3.4858;3.655
29.165000;0.6572;0.8552;-3.4101;3.577
29.171000;0.5550;0.8299;-3.2087;3.360
29.206000;0.4838;0.8217;-2.7895;2.948
29.208000;0.4980;0.8721;-2.1870;2.407
29.210000;0.5132;0.8741;-1.4924;1.804
29.212000;0.4258;0.8179;-0.6468;1.126
29.221000;0.3065;0.7940;0.2143;0.878
29.231000;0.1648;0.8229;0.9882;1.297
29.241000;-0.0329;0.8422;1.5920;1.801
29.251000;-0.2606;0.8760;1.9875;2.188
29.267000;-0.4557;0.9308;1.9564;2.214
29.272000;-0.6375;0.9595;1.7239;2.073
29.330000;-0.7461;0.9655;1.3822;1.844
29.332000;-0.7450;0.8679;1.3276;1.752
29.334000;-0.6236;0.7330;1.4825;1.767
29.335000;-0.3587;0.4890;1.6423;1.751
29.336000;0.0206;0.1682;2.0717;2.079
29.337000;0.4169;-0.1253;2.9491;2.981
29.341000;0.5825;-0.5166;4.1188;4.192
29.352000;0.7853;-0.7684;5.0181;5.137
29.367000;0.8039;-0.6373;5.5311;5.625
29.372000;0.6371;-0.3988;5.3224;5.375
29.423000;0.4014;-0.4045;4.5238;4.560
29.425000;0.0049;-1.1878;2.8826;3.118
29.426000;-0.1205;-1.4744;2.1765;2.632
29.428000;0.0962;-1.7293;1.8142;2.508
29.429000;0.7901;-1.9976;1.6734;2.723
29.433000;1.4874;-2.2740;1.8784;3.303
29.451000;2.3597;-2.8169;2.8713;4.663
29.468000;2.4697;-2.8311;3.4262;5.085
29.472000;2.1777;-2.8773;3.6379;5.124
29.508000;1.5552;-3.1126;3.6729;5.059
29.513000;0.9350;-3.2054;3.2586;4.665
29.515000;0.4361;-3.0858;2.4087;3.939
29.516000;0.0689;-2.9915;1.3582;3.286
29.521000;-0.1437;-2.9522;0.1947;2.962
29.531000;-0.0460;-2.7478;-0.5375;2.800
29.541000;-0.0287;-2.4488;-0.8716;2.599
29.551000;-0.0287;-2.1069;-0.7035;2.221
29.567000;0.0996;-1.6772;-0.3205;1.710
29.571000;0.1455;-1.2712;0.1525;1.289
29.624000;-0.0106;-1.0296;0.3157;1.077
29.625000;-0.2753;-0.9393;0.0350;0.979
29.626000;-0.5126;-0.8604;-0.1660;1.015
29.628000;-0.7839;-0.7988;-0.7391;1.341
29.630000;-1.1803;-0.7536;-1.4994;2.052
29.633000;-1.4511;-0.7249;-2.0127;2.585
29.642000;-1.6055;-0.6474;-2.0913;2.715
29.651000;-1.6686;-0.5919;-2.0364;2.698
29.668000;-1.7182;-0.7169;-2.0552;2.773
29.672000;-1.7671;-0.9157;-1.8740;2.734
29.709000;-1.8273;-1.0398;-1.5970;2.640
29.712000;-1.8267;-1.0519;-1.1243;2.389
29.713000;-1.8127;-1.0349;-0.8928;2.270
29.715000;-1.7903;-0.9567;-0.4762;2.085
29.721000;-1.4549;-0.7651;-0.1954;1.655
29.731000;-1.2697;-0.7634;-0.0743;1.483
29.742000;-1.0156;-0.8254;0.0210;1.309
29.752000;-0.6139;-0.8030;-0.0148;1.011
29.771000;-0.3718;-0.8052;-0.0999;0.893
29.773000;-0.1836;-0.8901;-0.0727;0.912
29.820000;0.0416;-0.9533;0.0929;0.959
29.822000;0.2501;-0.8937;0.3785;1.002
29.824000;0.4162;-0.6802;0.7601;1.102
29.825000;0.6032;-0.4731;0.8429;1.139
29.826000;0.8505;-0.3731;0.6896;1.157
29.831000;1.1463;-0.3294;0.5361;1.308
29.841000;1.2503;-0.2892;0.3861;1.340
29.851000;1.2172;-0.1685;0.1094;1.234
29.862000;1.1033;0.0349;-0.1948;1.121
29.872000;0.9020;0.2030;-0.4927;1.048
29.922000;0.7754;0.2847;-0.7065;1.087
29.924000;0.8332;0.3766;-0.8973;1.281
29.925000;0.9340;0.3513;-1.0677;1.461
29.927000;1.0469;0.2703;-1.1230;1.559
29.928000;1.0601;0.1540;-1.1316;1.558
29.934000;1.0939;0.0971;-1.0168;1.497
29.941000;1.0622;0.0943;-0.8805;1.383
29.951000;1.0797;0.1014;-0.7585;1.323
29.962000;1.1061;0.1246;-0.6939;1.312
29.971000;1.2264;0.2090;-0.6353;1.397
30.009000;1.3329;0.2509;-0.6064;1.486
30.011000;1.3645;0.2630;-0.6865;1.550
30.013000;1.2949;0.2736;-0.8203;1.557
30.014000;1.1263;0.3435;-1.0092;1.551
30.021000;0.9088;0.4220;-1.2376;1.592
30.031000;0.6557;0.5101;-1.4491;1.670
30.041000;0.2264;0.3947;-1.5289;1.595
30.052000;0.0243;0.3012;-1.5680;1.597
30.062000;-0.3576;-0.1733;-1.1990;1.263
30.073000;-0.4097;-0.4913;-0.4676;0.792
30.127000;-0.3270;-0.6550;0.3808;0.825
30.129000;-0.1403;-0.5937;1.1714;1.321
30.130000;0.1138;-0.4037;1.6159;1.669
30.132000;0.4067;-0.2497;1.8305;1.892
30.133000;0.6759;0.0537;2.0489;2.158
30.134000;0.7583;0.3083;2.0889;2.244
30.141000;0.7020;0.5130;1.9845;2.167
30.151000;0.4659;0.5360;1.2445;1.433
30.161000;0.4111;0.6972;0.4257;0.915
30.171000;0.1171;0.8085;-0.1583;0.832
30.207000;-0.1239;0.9300;-0.5471;1.086
30.208000;-0.2382;1.0169;-0.8053;1.319
30.209000;-0.2942;1.0806;-0.9989;1.501
30.211000;-0.3293;1.1184;-1.1435;1.633
30.221000;-0.3606;1.1333;-1.1003;1.620
30.231000;-0.4444;1.1000;-0.9027;1.491
30.241000;-0.5279;1.0169;-0.6957;1.340
30.251000;-0.6476;0.8849;-0.3785;1.160
30.261000;-0.6339;0.7848;0.1014;1.014
30.271000;-0.5310;0.6847;0.5587;1.031
30.322000;-0.3617;0.6624;0.8460;1.134
30.323000;-0.2900;0.7169;1.1311;1.370
30.324000;-0.3133;0.7760;1.1636;1.433
30.326000;-0.3177;0.6762;1.1685;1.387
30.327000;-0.1491;0.6284;0.8956;1.104
30.333000;0.0333;0.7675;0.8252;1.127
30.341000;0.1115;0.7181;0.6830;0.997
30.351000;-0.0198;0.4646;-0.0017;0.465
30.361000;-0.1685;0.7413;-0.1728;0.780
30.371000;-0.0582;1.0040;0.1575;1.018
30.408000;-0.0331;0.9271;-0.1048;0.934
30.409000;-0.0807;0.4504;-0.6328;0.781
30.410000;0.1372;1.0245;-0.5683;1.180
30.413000;-0.2113;0.8149;0.1414;0.854
30.422000;0.3608;1.1745;-0.2790;1.260
30.431000;0.3577;0.6589;-0.6108;0.967
30.441000;-0.0675;-0.0848;-0.3977;0.412
30.451000;-0.3615;-0.2864;-0.5161;0.692
30.461000;-0.5909;0.0805;-0.7062;0.924
30.471000;-0.6155;0.5032;-0.6280;1.013
30.524000;-0.7920;0.4290;-0.0590;0.903
30.525000;-0.8796;0.2964;0.3807;1.003
30.526000;-0.8546;0.1450;0.7234;1.129
30.527000;-0.3849;0.4023;1.8357;1.918
30.529000;-0.2113;0.2344;1.2251;1.265
30.531000;-0.2394;0.1302;0.4657;0.540
30.541000;-0.3532;0.1752;-0.2101;0.447
30.551000;-0.5124;0.3043;-0.6811;0.905
30.561000;-0.6115;0.3904;-0.8396;1.110
30.571000;-0.6139;0.5111;-0.6687;1.042
30.612000;-0.5270;0.6693;-0.3469;0.920
30.613000;-0.3301;0.7598;0.0565;0.830
30.614000;-0.1884;0.8892;0.3534;0.975
30.615000;0.0386;1.1396;0.4277;1.218
30.621000;0.0369;1.0255;0.4025;1.102
30.632000;0.0627;0.9529;0.4538;1.057
30.641000;0.0265;0.8156;0.4105;0.914
30.651000;0.0509;0.8343;0.5361;0.993
30.661000;0.1388;0.9959;0.6773;1.212
30.672000;0.0763;0.8714;0.6559;1.093
30.715000;-0.2118;0.5232;0.2622;0.622
30.717000;-0.4225;0.4309;0.1296;0.617
30.718000;-0.2586;0.5833;0.3871;0.746
30.719000;-0.1019;0.6491;0.7259;0.979
30.722000;0.0167;0.6459;0.7940;1.024
30.732000;0.0788;0.7084;0.7314;1.021
30.741000;0.1547;0.7473;0.6964;1.033
30.752000;0.1635;0.8196;0.7022;1.092
30.761000;0.1453;0.8684;0.7115;1.132
30.772000;0.0806;0.8829;0.7282;1.147
30.824000;0.0502;0.8363;0.7245;1.108
30.826000;0.0615;0.7777;0.6969;1.046
30.827000;0.1011;0.7624;0.6405;1.001
30.828000;0.1245;0.7547;0.6118;0.979
30.829000;0.1302;0.7837;0.5794;0.983
30.832000;0.3746;0.9672;0.3053;1.081
30.841000;1.0424;1.3470;0.3676;1.742
30.851000;1.1210;1.5342;0.5735;1.985
30.861000;0.9145;1.4720;0.5617;1.822
30.872000;0.8051;1.2904;0.3142;1.553
30.910000;0.6377;0.9726;-0.0290;1.163
30.912000;0.4211;0.7258;-0.2703;0.882
30.916000;0.3594;0.6468;-0.4014;0.842
30.917000;0.3513;0.6398;-0.5994;0.944
30.922000;0.3306;0.6339;-0.7161;1.012
30.932000;0.2900;0.6236;-0.5839;0.902
30.941000;0.1687;0.5078;-0.4122;0.675
30.952000;-0.0180;0.3923;-0.2194;0.450
30.961000;-0.1388;0.2812;-0.0556;0.318
30.971000;-0.2257;0.2100;-0.0234;0.309
31.041000;-0.2658;0.1410;-0.0858;0.313
31.043000;-0.3424;0.0352;-0.1327;0.369
31.045000;-0.4619;-0.0794;0.6378;0.792
31.046000;-0.7967;-0.4220;0.6661;1.121
31.048000;-0.7288;-0.5595;0.4370;1.017
31.048000;-0.6172;-0.5861;0.5696;1.024
31.049000;-0.6489;-0.5364;0.6689;1.075
31.053000;-0.6911;-0.2887;0.0419;0.750
31.061000;-0.5905;0.0844;-0.2019;0.630
31.071000;-0.3466;0.2082;-0.3569;0.539
31.089000;-0.1467;0.3541;-0.4496;0.591
31.092000;-0.0141;0.4343;-0.4432;0.621
31.130000;-0.0212;0.4255;-0.3772;0.569
31.132000;-0.0881;0.3817;-0.3535;0.528
31.133000;-0.0744;0.4104;-0.3875;0.569
31.134000;-0.0851;0.3736;-0.4635;0.601
31.141000;-0.0991;0.3474;-0.6006;0.701
31.151000;-0.0701;0.4221;-0.7077;0.827
31.161000;-0.0461;0.4116;-0.7491;0.856
31.172000;0.0101;0.5113;-0.7465;0.905
31.212000;0.1309;0.6057;-0.6949;0.931
31.213000;0.1855;0.6297;-0.5981;0.888
31.214000;0.2063;0.6283;-0.4165;0.782
31.214000;0.1845;0.5728;-0.2758;0.662
31.222000;0.2420;0.4449;-0.2515;0.565
31.232000;0.3925;0.4424;-0.1435;0.609
31.241000;0.8387;0.7007;0.1538;1.104
31.251000;0.8612;0.8466;0.2856;1.241
31.261000;0.6400;0.8687;0.4726;1.178
31.272000;0.5867;0.8775;0.6537;1.242
31.314000;0.4026;0.6844;0.6339;1.016
31.315000;0.2196;0.4212;0.4552;0.658
31.316000;0.1683;0.3394;0.2864;0.475
31.317000;0.1190;0.3377;0.1717;0.397
31.322000;0.0616;0.3586;0.0791;0.372
31.332000;0.0154;0.4327;0.1239;0.450
31.341000;0.0663;0.4724;0.2977;0.562
31.352000;0.1341;0.4808;0.4714;0.687
31.361000;0.0385;0.3931;0.5970;0.716
31.372000;-0.1367;0.1791;0.7919;0.823
31.410000;-0.1467;0.1404;0.8538;0.878
31.412000;-0.2397;0.3580;0.9158;1.012
31.413000;-0.0704;0.2098;-0.3377;0.404
31.415000;-0.1397;0.2787;0.1472;0.345
31.422000;-0.1805;0.3228;-0.1868;0.414
31.433000;-0.2670;0.2701;-0.2275;0.443
31.441000;-0.0013;0.4421;-0.2623;0.514
31.451000;0.3399;0.6293;-0.5187;0.884
31.461000;0.1370;0.4527;-0.1372;0.493
31.472000;-0.0598;0.5571;0.2093;0.598
31.509000;-0.1079;0.4405;1.3937;1.466
31.511000;-0.2653;0.4585;0.7996;0.959
31.512000;-0.1159;0.4991;0.3845;0.641
31.513000;-0.0414;0.4293;0.0811;0.439
31.521000;-0.0894;0.3791;-0.2043;0.440
31.532000;-0.3071;0.1810;-0.1905;0.404
31.541000;-0.2792;0.1539;0.0016;0.319
31.551000;-0.2365;0.1386;0.1456;0.310
31.561000;-0.2539;0.0966;0.2644;0.379
