time;ax;ay;az;aT
0.003000;-0.7797;-0.3555;-1.2417;1.509
0.004000;-0.7901;-0.2295;-0.7788;1.133
0.013000;-0.5610;-0.2158;-0.3449;0.693
0.020000;-0.2215;-0.3161;0.1895;0.430
0.031000;0.1331;-0.3278;0.9287;0.994
0.042000;0.3256;-0.1971;1.1590;1.220
0.051000;0.4135;0.2267;0.5817;0.749
0.061000;0.3385;0.3300;-0.0413;0.475
0.072000;0.2229;0.3562;-0.7537;0.863
0.086000;0.1534;0.2790;-0.9423;0.995
0.091000;0.1101;0.1592;-0.6895;0.716
0.101000;0.0957;0.0768;-0.3688;0.389
0.111000;0.0836;0.0681;-0.1593;0.192
0.121000;0.1165;0.0340;-0.1034;0.159
0.131000;0.3031;0.0084;0.0888;0.316
0.141000;0.3879;0.0935;0.5851;0.708
0.151000;0.5254;0.2187;1.4942;1.599
0.170000;0.5417;0.2189;1.7497;1.845
0.171000;0.4689;0.1281;1.4241;1.505
0.181000;0.3307;-0.0358;0.8919;0.952
0.192000;0.1007;-0.2051;0.5869;0.630
0.210000;-0.1114;-0.2842;0.3598;0.472
0.222000;-0.3102;-0.2765;0.3780;0.562
0.223000;-0.4735;-0.3286;0.2105;0.614
0.234000;-0.5272;-0.4456;0.0955;0.697
0.241000;-0.4151;-0.5061;0.0598;0.657
0.253000;-0.2266;-0.4525;0.2743;0.576
0.260000;0.0822;-0.2503;0.5805;0.637
0.270000;0.2635;-0.0497;0.8287;0.871
0.281000;0.3723;0.1058;0.8651;0.948
0.291000;0.4302;0.2008;0.6855;0.834
0.312000;0.3935;0.1890;0.4164;0.603
0.313000;0.2853;0.1074;0.2721;0.409
0.321000;0.1677;0.0491;0.2405;0.297
0.331000;0.0869;0.0656;0.3180;0.336
0.341000;0.0229;0.0414;0.3980;0.401
0.351000;-0.0223;-0.0040;0.3742;0.375
0.362000;-0.0341;-0.0631;0.3147;0.323
0.371000;-0.0062;-0.0826;0.3370;0.347
0.391000;0.0912;0.1075;0.3226;0.352
0.393000;0.1103;0.1808;0.2260;0.310
0.401000;0.0945;0.2022;0.1370;0.262
0.412000;0.0883;0.1735;0.0387;0.198
0.421000;0.1142;0.1856;0.0243;0.219
0.430000;0.1587;0.1776;0.1246;0.269
0.440000;0.1616;0.1854;0.2819;0.374
0.451000;0.1543;0.1748;0.3623;0.431
0.468000;0.1371;0.1283;0.2858;0.342
0.470000;0.1578;0.0676;0.1578;0.233
0.481000;0.1734;0.0030;0.0752;0.189
0.491000;0.1468;-0.0364;0.0286;0.154
0.512000;0.0942;-0.0278;0.0526;0.111
0.513000;0.0232;-0.0136;0.1329;0.136
0.521000;-0.0187;-0.0210;0.2564;0.258
0.531000;-0.0111;-0.0625;0.2999;0.307
0.541000;-0.0041;-0.0775;0.1856;0.201
0.551000;-0.0279;-0.0614;-0.0171;0.070
0.571000;-0.0832;-0.0131;-0.1155;0.143
0.572000;-0.0716;0.0315;-0.1099;0.135
0.581000;-0.0005;0.1084;-0.0877;0.139
0.591000;0.0461;0.1721;-0.0801;0.195
0.625000;0.0242;0.2111;-0.0893;0.231
0.627000;-0.0319;0.2205;-0.0577;0.230
0.628000;-0.0818;0.1855;-0.0094;0.203
0.632000;-0.1189;0.1027;0.0186;0.158
0.641000;-0.1902;0.0696;0.0381;0.206
0.651000;-0.2677;0.0564;0.0994;0.291
0.672000;-0.3353;0.0504;0.1980;0.393
0.673000;-0.3395;0.0420;0.2691;0.435
0.681000;-0.2494;0.0424;0.2722;0.372
0.691000;-0.1499;0.0323;0.1665;0.226
0.729000;-0.1462;0.1019;0.0932;0.201
0.730000;-0.2206;0.2030;0.1948;0.358
0.731000;-0.2183;0.1557;0.2869;0.393
0.733000;-0.1983;0.0935;0.3633;0.424
0.741000;-0.1722;0.0450;0.3845;0.424
0.752000;-0.1882;0.0243;0.4189;0.460
0.772000;-0.2077;0.0490;0.4821;0.527
0.773000;-0.1962;0.0111;0.4949;0.533
0.811000;-0.1219;-0.1060;0.5137;0.539
0.812000;-0.0845;-0.1889;0.5491;0.587
0.814000;-0.0933;-0.1960;0.5833;0.622
0.814000;-0.1128;-0.1648;0.5756;0.609
0.821000;-0.0811;-0.1398;0.4986;0.524
0.831000;-0.0103;-0.1261;0.3763;0.397
0.840000;0.0638;-0.0735;0.1776;0.202
0.851000;0.1052;0.0137;0.0173;0.108
0.865000;0.1771;0.1023;-0.1117;0.233
0.871000;0.2563;0.1669;-0.1510;0.341
0.902000;0.3226;0.1947;-0.1712;0.414
0.904000;0.3459;0.2142;-0.1941;0.451
0.904000;0.3376;0.1948;-0.2220;0.449
0.912000;0.3425;0.1689;-0.3076;0.490
0.921000;0.2808;0.1511;-0.3286;0.458
0.930000;0.2048;0.1632;-0.2673;0.374
0.940000;0.0729;0.1140;-0.1624;0.211
0.951000;-0.0266;0.0366;-0.0316;0.055
0.965000;-0.0580;-0.0525;0.0356;0.086
0.972000;-0.0529;-0.1161;0.0524;0.138
1.001000;-0.0853;-0.1767;0.1171;0.228
1.003000;-0.1223;-0.2124;0.1733;0.300
1.004000;-0.2233;-0.2721;0.2189;0.415
1.012000;-0.2957;-0.2841;0.1857;0.450
1.021000;-0.3305;-0.2589;0.1575;0.448
1.031000;-0.3491;-0.2099;0.1714;0.442
1.041000;-0.3192;-0.1730;0.2801;0.459
1.051000;-0.2694;-0.1595;0.2898;0.427
1.062000;-0.1989;-0.1345;0.1967;0.310
1.071000;-0.1754;-0.1069;0.1038;0.230
1.086000;-0.1545;-0.0588;0.0612;0.176
1.091000;-0.1207;0.0184;0.0819;0.147
1.134000;-0.0714;0.0804;0.1273;0.167
1.135000;-0.0305;0.1126;0.2239;0.252
1.136000;0.0023;0.1207;0.2579;0.285
1.137000;0.0228;0.1370;0.2250;0.264
1.141000;0.0342;0.1127;0.1586;0.198
1.152000;0.0196;0.1092;0.1090;0.156
1.161000;-0.0140;0.0913;0.0582;0.109
1.170000;-0.0144;0.0756;0.0997;0.126
1.182000;0.0022;0.0561;0.1351;0.146
1.191000;0.0442;0.0360;0.1692;0.178
1.229000;0.0829;0.0470;0.2115;0.232
1.231000;0.1522;0.0913;0.2920;0.342
1.232000;0.1826;0.1433;0.3485;0.419
1.233000;0.1823;0.1407;0.3417;0.412
1.241000;0.1569;0.1210;0.2859;0.348
1.252000;0.1166;0.0681;0.2293;0.266
1.265000;0.1450;0.0643;0.2099;0.263
1.271000;0.0961;0.0822;0.2400;0.271
1.285000;0.0543;0.1051;0.2498;0.276
1.292000;0.0737;0.1442;0.2250;0.277
1.333000;0.0676;0.1444;0.1906;0.248
1.335000;0.0778;0.1671;0.1250;0.223
1.335000;0.0732;0.1588;0.0509;0.182
1.336000;0.0785;0.1300;-0.0257;0.154
1.341000;0.0053;0.0550;-0.0186;0.058
1.351000;-0.0367;0.0099;0.0002;0.038
1.363000;-0.0786;-0.0079;0.1003;0.128
1.371000;-0.0929;-0.0212;0.2625;0.279
1.381000;-0.0757;-0.0521;0.3192;0.332
1.391000;-0.0599;-0.0535;0.3245;0.334
1.403000;-0.0765;-0.0240;0.2294;0.243
1.451000;-0.1024;-0.0123;0.1132;0.153
1.453000;-0.1283;-0.0147;0.0847;0.154
1.454000;-0.1408;-0.0205;0.1209;0.187
1.455000;-0.1286;-0.0047;0.1872;0.227
1.455000;-0.1032;0.0189;0.1997;0.226
1.463000;-0.1128;0.0109;0.1630;0.198
1.471000;-0.1632;-0.0020;0.1430;0.217
1.481000;-0.1972;0.0039;0.1410;0.242
1.491000;-0.2031;0.0056;0.1784;0.270
1.502000;-0.1859;0.0138;0.2600;0.320
1.549000;-0.1741;0.0235;0.3104;0.357
1.551000;-0.1751;0.0180;0.3106;0.357
1.552000;-0.1788;0.0034;0.3325;0.378
1.552000;-0.1534;0.0121;0.3700;0.401
1.553000;-0.1388;0.0105;0.3620;0.388
1.562000;-0.1356;-0.0050;0.3290;0.356
1.571000;-0.1152;-0.0159;0.3595;0.378
1.582000;-0.0834;-0.0694;0.4414;0.455
1.591000;-0.0434;-0.1087;0.4943;0.508
1.601000;-0.0166;-0.1525;0.5232;0.545
1.646000;-0.0376;-0.1666;0.4623;0.493
1.648000;-0.0256;-0.1580;0.3489;0.384
1.649000;0.0467;-0.1035;0.2392;0.265
1.650000;0.1637;-0.0083;0.1355;0.213
1.651000;0.2451;0.0746;0.0546;0.262
1.663000;0.2796;0.1361;0.0311;0.312
1.671000;0.2697;0.1592;0.0375;0.315
1.681000;0.2251;0.1519;0.0331;0.274
1.691000;0.1710;0.1053;0.0036;0.201
1.702000;0.0962;0.0110;-0.0823;0.127
1.744000;0.0187;-0.0368;-0.1346;0.141
1.745000;-0.0558;-0.0698;-0.1476;0.173
1.746000;-0.0796;-0.1034;-0.0924;0.160
1.747000;-0.0784;-0.1088;-0.0100;0.134
1.751000;-0.0564;-0.1039;0.1011;0.156
1.763000;-0.0641;-0.0986;0.1847;0.219
1.771000;-0.0902;-0.0964;0.2193;0.256
1.782000;-0.0826;-0.0751;0.1607;0.196
1.791000;-0.0782;-0.0296;0.0509;0.098
1.804000;-0.0586;0.0220;-0.0217;0.066
1.853000;-0.0156;0.0462;-0.0668;0.083
1.854000;-0.0144;0.0526;-0.0641;0.084
1.855000;-0.0565;0.0073;0.0017;0.057
1.856000;-0.1117;-0.0328;0.0972;0.152
1.856000;-0.1365;-0.0850;0.1544;0.223
1.864000;-0.1590;-0.1270;0.2354;0.311
1.874000;-0.1688;-0.1442;0.2326;0.321
1.890000;-0.1860;-0.1585;0.1806;0.304
1.891000;-0.1854;-0.1523;0.1203;0.268
1.937000;-0.1933;-0.1213;0.0469;0.233
1.938000;-0.2463;-0.1047;-0.0254;0.269
1.939000;-0.2571;-0.1230;-0.1180;0.309
1.940000;-0.2584;-0.1474;-0.1209;0.321
1.949000;-0.2169;-0.1418;0.0119;0.259
1.959000;-0.1664;-0.1328;0.2162;0.303
1.974000;-0.2104;-0.1872;0.3294;0.433
1.974000;0.0313;-0.0572;0.3061;0.313
1.990000;0.1343;0.0692;0.4192;0.446
1.991000;0.1693;0.1456;0.4428;0.496
2.034000;0.1606;0.1798;0.4188;0.483
2.035000;0.1428;0.1814;0.4321;0.490
2.035000;0.1383;0.1332;0.3513;0.400
2.036000;0.1469;0.0790;0.2169;0.274
2.041000;0.1399;0.0496;0.1436;0.207
2.051000;0.1416;0.0970;0.1064;0.202
2.067000;0.1386;0.1263;0.0009;0.188
2.071000;0.1168;0.1498;-0.1369;0.234
2.081000;0.0786;0.1837;-0.2327;0.307
2.091000;0.0954;0.2101;-0.2748;0.359
2.101000;0.1344;0.2026;-0.2442;0.345
2.111000;0.2093;0.2172;-0.1553;0.339
2.141000;0.1857;0.1766;-0.0872;0.271
2.143000;0.1156;0.0954;0.0120;0.150
2.144000;0.0343;0.0129;0.1408;0.145
2.150000;-0.0391;-0.0810;0.1907;0.211
2.163000;-0.0463;-0.1463;0.2439;0.288
2.171000;-0.0324;-0.1409;0.3376;0.367
2.181000;-0.0209;-0.1473;0.3412;0.372
2.191000;-0.0007;-0.1974;0.3076;0.366
2.203000;0.0799;-0.2747;0.0727;0.295
2.252000;0.0806;-0.2998;-0.2209;0.381
2.254000;-0.0430;-0.2674;-0.2321;0.357
2.255000;0.0082;-0.1263;0.1553;0.200
2.255000;0.1200;0.0088;0.3612;0.381
2.256000;0.1711;0.1013;0.4400;0.483
2.263000;0.0992;0.0634;0.5151;0.528
2.271000;-0.0491;-0.0139;0.6115;0.614
2.281000;-0.1881;-0.1284;0.6091;0.650
2.291000;-0.3137;-0.2356;0.5183;0.650
2.304000;-0.3485;-0.2753;0.4392;0.625
2.312000;-0.3014;-0.2402;0.4612;0.601
2.343000;-0.1848;-0.1247;0.5076;0.554
2.344000;-0.0288;0.0138;0.5714;0.572
2.345000;0.1092;0.0798;0.5977;0.613
2.352000;0.2383;0.1297;0.5906;0.650
2.363000;0.3055;0.1505;0.3336;0.477
2.371000;0.2292;0.1014;0.1428;0.288
2.381000;0.1252;0.0539;0.0663;0.152
2.391000;0.0414;-0.0237;0.0225;0.053
2.403000;-0.0365;-0.1388;0.0171;0.145
2.412000;-0.1238;-0.2470;0.0490;0.281
2.444000;-0.1842;-0.3334;0.0869;0.391
2.446000;-0.1802;-0.3128;0.1523;0.392
2.447000;-0.0855;-0.2026;0.1865;0.288
2.451000;-0.0107;-0.1257;0.2195;0.253
2.465000;0.0201;-0.0270;0.1459;0.150
2.471000;0.0255;0.0596;0.1275;0.143
2.481000;-0.0157;0.0675;-0.0608;0.092
2.491000;-0.0391;0.0197;-0.2176;0.222
2.504000;-0.0537;-0.0526;-0.3133;0.322
2.512000;-0.0741;-0.0899;-0.3075;0.329
2.552000;-0.0968;-0.0941;-0.2120;0.251
2.554000;-0.1443;-0.0739;-0.0628;0.174
2.555000;-0.1812;-0.0484;0.1689;0.252
2.556000;-0.1852;-0.0511;0.3587;0.407
2.561000;-0.2005;-0.0505;0.4204;0.468
2.571000;-0.1990;-0.0391;0.4021;0.450
2.585000;-0.1513;-0.0168;0.2619;0.303
2.591000;-0.1172;0.0307;0.0775;0.144
2.628000;-0.0777;0.0642;-0.1403;0.173
2.630000;-0.0409;0.0846;-0.3224;0.336
2.631000;-0.0281;0.0822;-0.4317;0.440
2.631000;-0.0741;0.0425;-0.4476;0.456
2.642000;-0.0953;-0.0100;-0.3656;0.378
2.651000;-0.1267;-0.0235;-0.1662;0.210
2.662000;-0.1707;-0.0449;-0.0634;0.188
2.671000;-0.1396;-0.0260;-0.0355;0.146
2.687000;-0.1169;-0.0095;-0.0142;0.118
2.692000;-0.0681;-0.0031;0.0468;0.083
2.733000;0.0051;-0.0741;0.1718;0.187
2.734000;0.0438;-0.1010;0.2932;0.313
2.735000;0.0110;-0.1041;0.4747;0.486
2.736000;-0.0206;-0.0678;0.6370;0.641
2.741000;-0.0564;-0.0338;0.7082;0.711
2.751000;-0.0804;-0.0463;0.6327;0.640
2.762000;-0.1037;-0.0312;0.4792;0.491
2.771000;-0.0920;-0.0364;0.3027;0.318
2.789000;-0.0958;-0.0344;0.1647;0.194
2.837000;-0.0640;-0.0292;0.1553;0.170
2.839000;0.0426;-0.0196;0.0907;0.102
2.839000;0.1461;0.0225;0.2024;0.251
2.840000;0.1486;0.0719;0.3547;0.391
2.841000;0.1137;0.0786;0.3489;0.375
2.842000;0.0814;0.0709;0.3132;0.331
2.851000;0.0361;0.0546;0.3257;0.332
2.861000;0.0046;0.0292;0.3071;0.309
2.871000;-0.0162;0.0227;0.2814;0.283
2.885000;0.0079;0.0167;0.3132;0.314
2.891000;0.0215;0.0229;0.3295;0.331
2.928000;-0.0025;0.0008;0.3328;0.333
2.929000;-0.0290;-0.0324;0.2943;0.297
2.930000;-0.0515;-0.0508;0.2653;0.275
2.931000;-0.0433;-0.0453;0.2145;0.224
2.941000;-0.0613;-0.0611;0.1396;0.164
2.951000;-0.0940;-0.0419;0.1374;0.172
2.962000;-0.1039;-0.0262;0.1375;0.174
2.971000;-0.0876;-0.0246;0.1398;0.167
2.988000;-0.0836;-0.0279;0.1516;0.175
3.030000;-0.0889;-0.0297;0.1779;0.201
3.031000;-0.0305;-0.0147;0.1931;0.196
3.032000;-0.0077;-0.0286;0.1594;0.162
3.033000;0.0215;-0.0230;0.1994;0.202
3.041000;0.0352;-0.0704;0.2096;0.224
3.051000;0.0532;-0.1092;0.2293;0.259
3.061000;0.0421;-0.1317;0.1879;0.233
3.071000;0.0178;-0.1095;0.1596;0.194
3.085000;0.0105;-0.0818;0.1110;0.138
3.091000;0.0351;-0.0423;0.0577;0.080
3.129000;0.0489;0.0120;-0.0409;0.065
3.131000;0.0668;0.0507;-0.0567;0.101
3.132000;0.0822;0.0817;-0.0530;0.127
3.132000;0.0792;0.0929;-0.0217;0.124
3.141000;0.0461;0.0929;0.0097;0.104
3.151000;0.0072;0.0833;0.0241;0.087
3.162000;-0.0126;0.0727;0.0013;0.074
3.172000;0.0183;0.0289;-0.0338;0.048
3.188000;0.0509;-0.0132;-0.0297;0.060
3.193000;0.0438;-0.0263;0.0186;0.054
3.237000;0.0147;-0.0171;0.1087;0.111
3.238000;-0.0256;-0.0274;0.1248;0.130
3.239000;-0.0642;-0.0169;0.0932;0.114
3.240000;-0.0664;0.0249;0.0067;0.071
3.242000;-0.0493;0.0943;-0.0448;0.116
3.251000;-0.0317;0.1395;-0.0029;0.143
3.261000;-0.0283;0.1493;0.1082;0.187
3.271000;-0.0096;0.1249;0.1856;0.224
3.286000;0.0124;0.0428;0.1981;0.203
3.291000;-0.0144;-0.0474;0.1794;0.186
3.325000;-0.0567;-0.0705;0.2026;0.222
3.327000;-0.0950;-0.0909;0.2258;0.261
3.327000;-0.1112;-0.1140;0.2541;0.300
3.336000;-0.1384;-0.1012;0.2886;0.336
3.341000;-0.1239;-0.1189;0.2433;0.298
3.351000;-0.1199;-0.1110;0.1849;0.247
3.361000;-0.0875;-0.0825;0.0633;0.136
3.371000;-0.0277;0.0152;0.0099;0.033
3.386000;-0.0150;0.0418;-0.0030;0.045
3.392000;-0.0189;0.0207;0.0440;0.052
3.434000;-0.0156;0.0153;0.0285;0.036
3.435000;-0.0365;0.0240;-0.0540;0.069
3.436000;-0.0535;0.0289;-0.0947;0.112
3.436000;-0.0666;0.0440;-0.0538;0.096
3.441000;-0.0798;0.0443;-0.0201;0.094
3.452000;-0.0777;0.0139;-0.0368;0.087
3.461000;-0.0851;-0.0285;-0.0282;0.094
3.471000;-0.0857;-0.0445;-0.0042;0.097
3.486000;-0.0748;-0.0317;0.0545;0.098
3.491000;-0.0462;0.0050;0.1730;0.179
3.546000;-0.0440;0.0332;0.2460;0.252
3.549000;-0.0075;0.0729;0.4233;0.430
3.550000;-0.0068;0.0565;0.4103;0.414
3.551000;-0.0669;0.0259;0.2959;0.305
3.552000;-0.0610;0.0119;0.1675;0.179
3.554000;-0.1078;0.0035;-0.0507;0.119
3.561000;-0.1143;0.0100;-0.1226;0.168
3.571000;-0.0950;0.0205;0.0387;0.105
3.587000;-0.0681;0.0474;0.2296;0.244
3.591000;-0.0406;0.0783;0.3976;0.407
3.636000;-0.0099;0.0977;0.4518;0.462
3.637000;0.0384;0.1267;0.4090;0.430
3.638000;0.0570;0.1571;0.3173;0.359
3.639000;0.0645;0.1535;0.2254;0.280
3.642000;0.0588;0.1354;0.1597;0.217
3.651000;0.0550;0.1245;0.1393;0.195
3.661000;0.0767;0.1256;0.1761;0.230
3.672000;0.0706;0.1399;0.2929;0.332
3.688000;0.1154;0.1142;0.4778;0.505
3.691000;0.1080;0.1077;0.4557;0.481
3.729000;0.0899;0.1247;0.3379;0.371
3.731000;0.0700;0.1314;0.1784;0.232
3.732000;0.0717;0.0970;0.0862;0.148
3.732000;0.0759;0.1067;0.1077;0.169
3.741000;0.0688;0.1116;0.1746;0.218
3.751000;0.0386;0.0979;0.1913;0.218
3.762000;0.0035;0.0900;0.1804;0.202
3.772000;-0.0222;0.0906;0.1168;0.149
3.790000;-0.0674;0.1152;0.0483;0.142
3.792000;-0.0857;0.1500;0.0707;0.187
3.844000;-0.0781;0.1301;0.2114;0.260
3.845000;-0.0555;0.1135;0.4106;0.430
3.846000;-0.0228;0.0755;0.5640;0.570
3.849000;-0.0147;0.0395;0.6635;0.665
3.851000;-0.0123;0.0133;0.6493;0.650
3.851000;-0.0042;0.0214;0.5598;0.560
3.861000;0.0164;0.0639;0.5194;0.524
3.871000;0.0283;0.1003;0.5064;0.517
3.888000;0.0377;0.1240;0.4947;0.511
3.891000;0.0520;0.1129;0.4447;0.462
3.930000;0.0317;0.1140;0.4365;0.452
3.931000;0.0004;0.1049;0.3566;0.372
3.932000;-0.0163;0.1166;0.2910;0.314
3.933000;-0.0021;0.1057;0.1870;0.215
3.941000;0.0175;0.0687;0.0841;0.110
3.951000;0.0075;0.0230;0.0806;0.084
3.960000;-0.0195;-0.0063;0.1357;0.137
3.971000;-0.0394;-0.0395;0.1143;0.127
3.981000;-0.0416;-0.0840;0.0752;0.120
3.991000;-0.0603;-0.1187;0.0386;0.139
4.001000;-0.0740;-0.1485;-0.0074;0.166
4.011000;-0.0993;-0.1720;-0.0627;0.208
4.036000;-0.1107;-0.2174;-0.1372;0.280
4.038000;-0.1720;-0.2421;-0.2331;0.377
4.041000;-0.1834;-0.2406;-0.3361;0.452
4.051000;-0.1798;-0.2053;-0.4642;0.538
4.060000;-0.1701;-0.1448;-0.5849;0.626
4.071000;-0.1723;-0.0660;-0.6648;0.690
4.080000;-0.1548;-0.0034;-0.6824;0.700
4.092000;-0.1446;0.0286;-0.6677;0.684
4.148000;-0.1162;0.0919;-0.5992;0.617
4.150000;-0.1464;0.1496;-0.5656;0.603
4.151000;-0.1062;0.1885;-0.5285;0.571
4.152000;-0.0246;0.2441;-0.3612;0.437
4.153000;0.0685;0.2658;-0.2301;0.358
4.154000;0.0705;0.2428;-0.1040;0.273
4.161000;0.0197;0.1741;0.0006;0.175
4.171000;-0.0754;0.0948;0.0526;0.132
4.188000;-0.1717;0.0214;0.0655;0.185
4.192000;-0.2458;-0.0055;0.0571;0.252
4.227000;-0.2788;-0.0012;-0.0168;0.279
4.229000;-0.2487;0.0663;-0.1407;0.293
4.230000;-0.2024;0.1302;-0.2823;0.371
4.231000;-0.1174;0.2075;-0.3306;0.408
4.241000;-0.0566;0.3096;-0.3165;0.446
4.251000;-0.0190;0.3466;-0.2331;0.418
4.261000;-0.0289;0.3192;-0.1306;0.346
4.271000;-0.0711;0.2416;0.0041;0.252
4.287000;-0.1206;0.1384;0.1087;0.213
4.291000;-0.1758;0.0340;0.1665;0.245
4.320000;-0.2182;-0.0116;0.1513;0.266
4.321000;-0.2403;0.0036;0.0668;0.249
4.322000;-0.2153;0.0840;-0.0367;0.234
4.333000;-0.1198;0.2154;-0.0886;0.262
4.341000;-0.0110;0.3386;-0.0649;0.345
4.351000;0.1109;0.4083;0.0675;0.428
4.361000;0.1984;0.4092;0.4247;0.622
4.372000;0.1542;0.3124;0.3807;0.516
4.390000;0.0810;0.1819;0.2746;0.339
4.394000;-0.0102;0.0722;0.1482;0.165
4.439000;-0.0679;0.0229;0.1298;0.148
4.440000;-0.0762;0.0060;0.2059;0.220
4.442000;-0.0766;0.0057;0.3050;0.315
4.442000;-0.1070;-0.0066;0.2940;0.313
4.443000;-0.1385;0.0022;0.1936;0.238
4.451000;-0.1750;0.0819;0.1354;0.236
4.461000;-0.1849;0.1587;0.0079;0.244
4.471000;-0.1742;0.2535;-0.0452;0.311
4.491000;-0.0942;0.3251;-0.0228;0.339
4.493000;0.0107;0.4087;0.0328;0.410
4.540000;0.1826;0.5072;0.1022;0.549
4.542000;0.3536;0.5185;0.1553;0.646
4.542000;0.3978;0.4783;0.2950;0.689
4.543000;0.4629;0.3899;0.4698;0.766
4.546000;0.4079;0.2319;0.7478;0.883
4.560000;0.1921;-0.1562;1.1568;1.183
4.571000;0.0601;-0.2433;1.2369;1.262
4.581000;-0.0499;-0.2330;1.3007;1.322
4.610000;-0.0683;-0.0817;1.2037;1.208
4.611000;-0.0112;0.2058;0.9349;0.957
4.612000;0.1310;0.5554;0.5718;0.808
4.621000;0.3317;0.8572;0.2684;0.957
4.631000;0.5279;1.0778;0.1365;1.208
4.642000;0.6237;1.1465;0.0395;1.306
4.652000;0.7075;1.2081;0.0102;1.400
4.661000;0.7141;1.2228;0.0150;1.416
4.671000;0.6220;1.1555;-0.1849;1.325
4.681000;0.4626;0.9924;-0.3702;1.156
4.691000;0.0706;0.5211;-0.5244;0.743
4.727000;-0.0497;0.3443;-0.5388;0.641
4.728000;-0.0790;0.2242;-0.5142;0.567
4.729000;-0.0959;0.2593;-0.4259;0.508
4.731000;-0.0521;0.3742;-0.4200;0.565
4.741000;0.0113;0.5085;-0.4498;0.679
4.751000;0.1068;0.5993;-0.4736;0.771
4.761000;0.1907;0.6297;-0.5116;0.833
4.771000;0.2398;0.6251;-0.4813;0.825
4.782000;0.2187;0.5632;-0.3050;0.677
4.799000;0.1602;0.4861;-0.0618;0.516
4.813000;-0.0402;0.2897;0.3078;0.425
4.845000;-0.1221;0.1932;0.4749;0.527
4.846000;-0.1850;0.0848;0.6786;0.708
4.848000;-0.2349;0.0240;0.7219;0.760
4.856000;-0.2616;0.0903;0.7571;0.806
4.861000;-0.2797;0.2449;0.6934;0.787
4.871000;-0.2858;0.4625;0.5822;0.797
4.881000;-0.2554;0.6388;0.4728;0.835
4.891000;-0.1791;0.7814;0.3315;0.868
4.936000;-0.1124;0.9390;0.2339;0.974
4.938000;-0.1119;1.0296;0.0577;1.037
4.939000;-0.0437;1.1253;0.0614;1.128
4.940000;0.0015;1.1735;0.0997;1.178
4.941000;-0.0029;1.1507;0.0864;1.154
4.952000;-0.0063;1.0639;0.1220;1.071
4.961000;-0.0447;0.9405;0.1540;0.954
4.971000;-0.0997;0.8038;0.2189;0.839
4.982000;-0.1607;0.6868;0.3233;0.776
4.992000;-0.1960;0.6062;0.4207;0.763
5.032000;-0.1980;0.5668;0.5218;0.795
5.034000;-0.2137;0.6012;0.5478;0.841
5.036000;-0.1455;0.6327;0.5612;0.858
5.037000;0.0335;0.6840;0.6258;0.928
5.041000;0.0677;0.6883;0.6895;0.977
5.051000;0.0224;0.6858;0.7159;0.992
5.061000;-0.0085;0.7039;0.7315;1.015
5.071000;-0.0003;0.7121;0.7122;1.007
5.081000;0.0970;0.6800;0.7764;1.037
5.092000;0.2443;0.6010;1.0088;1.199
5.132000;0.3640;0.4080;1.3830;1.487
5.134000;0.4734;0.1511;1.7109;1.782
5.135000;0.4925;-0.2027;1.9461;2.018
5.135000;0.4791;-0.6662;2.0553;2.213
5.141000;0.4003;-1.1537;1.9942;2.338
5.151000;0.2396;-1.5706;1.8276;2.422
5.161000;-0.0263;-1.8325;1.6560;2.470
5.171000;-0.3125;-1.8618;1.4699;2.393
5.181000;-0.5262;-1.6897;1.2242;2.152
5.192000;-0.6204;-1.4229;0.8699;1.779
5.232000;-0.6260;-1.2263;0.5125;1.469
5.234000;-0.4989;-1.0805;0.3707;1.247
5.235000;-0.2935;-1.0134;0.5854;1.207
5.236000;-0.0038;-1.1140;0.9120;1.440
5.241000;0.2029;-1.3638;1.3793;1.950
5.251000;0.2420;-1.5986;1.7099;2.353
5.261000;0.1082;-1.8203;1.7240;2.509
5.271000;-0.2051;-1.9962;1.3489;2.418
5.281000;-0.5320;-2.0229;0.5764;2.170
5.292000;-0.8383;-1.8353;-0.3923;2.056
5.325000;-1.0642;-1.4951;-1.1865;2.185
5.326000;-1.2099;-1.0131;-1.9034;2.472
5.327000;-1.2442;-0.5140;-2.5337;2.869
5.331000;-1.2048;-0.0200;-2.9045;3.145
5.341000;-1.0561;0.3995;-2.8109;3.029
5.351000;-0.4735;0.6517;-2.2186;2.360
5.361000;-0.0945;0.5381;-1.7597;1.843
5.371000;0.3125;0.3436;-1.3025;1.383
5.381000;0.6676;0.0978;-0.9390;1.156
5.391000;0.8723;-0.1751;-0.4818;1.012
5.426000;0.8716;-0.4762;0.2044;1.014
5.428000;0.7025;-0.8256;0.8458;1.375
5.429000;0.4687;-1.1673;1.0375;1.631
5.431000;0.2771;-1.3835;0.8329;1.638
5.441000;0.1216;-1.3944;0.2588;1.423
5.451000;0.0524;-1.2355;-0.4296;1.309
5.461000;0.0517;-0.9606;-0.8915;1.312
5.471000;0.1419;-0.6660;-1.0986;1.293
5.481000;0.2875;-0.3368;-1.0884;1.175
5.491000;0.4617;0.0317;-1.0697;1.166
5.536000;0.5892;0.3604;-1.1528;1.344
5.538000;0.6606;0.6070;-1.3596;1.629
5.539000;0.7132;0.8029;-1.5622;1.896
5.540000;0.7963;0.8798;-1.6388;2.023
5.542000;0.8241;0.8430;-1.4519;1.870
5.552000;0.7608;0.7056;-0.9980;1.440
5.561000;0.6300;0.5313;-0.4647;0.946
5.571000;0.4509;0.4006;-0.0110;0.603
5.580000;0.2282;0.3377;0.2858;0.498
5.592000;-0.0041;0.3423;0.3744;0.507
5.639000;-0.1589;0.3897;0.3878;0.572
5.641000;-0.2256;0.5014;0.4183;0.691
5.642000;-0.2579;0.6223;0.4646;0.818
5.642000;-0.2665;0.7002;0.6222;0.974
5.643000;-0.2463;0.7361;0.9727;1.244
5.653000;-0.2652;0.6647;1.4297;1.599
5.661000;-0.3709;0.4405;1.8464;1.934
5.671000;-0.6090;0.1102;2.1273;2.215
5.681000;-0.9374;-0.2465;2.1109;2.323
5.692000;-1.6852;-0.6655;1.2529;2.203
5.733000;-1.8521;-0.5723;0.8007;2.097
5.735000;-1.8770;-0.3352;0.3937;1.947
5.735000;-1.7287;0.0032;-0.0103;1.729
5.736000;-1.4528;0.4423;-0.2463;1.539
5.740000;-1.0837;0.8469;-0.1846;1.388
5.751000;-0.7013;0.9491;0.0500;1.181
5.761000;-0.3482;0.8122;0.5098;1.020
5.771000;-0.1902;0.4681;0.9145;1.045
5.781000;-0.1426;-0.0357;1.2071;1.216
5.792000;-0.0029;-0.5918;1.4057;1.525
5.843000;0.1682;-1.2015;1.5776;1.990
5.845000;0.2456;-1.9146;1.7708;2.619
5.846000;0.1571;-2.6234;2.3034;3.495
5.848000;-0.0817;-3.2899;2.9898;4.446
5.850000;-0.3761;-3.8422;3.7356;5.372
5.852000;-0.7554;-4.1944;4.3068;6.059
5.862000;-1.0903;-4.3040;4.2790;6.166
5.871000;-1.2860;-4.0818;3.4437;5.493
5.881000;-1.2900;-3.5561;1.9579;4.260
5.892000;-1.1023;-2.9687;0.4284;3.196
5.930000;-0.7409;-2.3319;-0.8532;2.591
5.932000;-0.2427;-1.5897;-1.7452;2.373
5.934000;0.3578;-0.8740;-2.1742;2.370
5.935000;0.9258;-0.3133;-2.1058;2.322
5.941000;1.4914;0.0135;-1.5966;2.185
5.953000;1.9362;0.0568;-0.8594;2.119
5.961000;2.1606;-0.1029;-0.0218;2.163
5.971000;2.1155;-0.3320;0.9240;2.332
5.981000;1.7696;-0.6109;1.6079;2.468
5.991000;1.2736;-0.9895;1.8738;2.472
6.044000;0.6158;-1.4513;1.6632;2.292
6.045000;-0.0039;-1.8223;1.1247;2.141
6.047000;-0.7994;-1.9870;-0.2028;2.151
6.048000;-0.8543;-1.6459;-0.6974;1.981
6.050000;-0.6445;-1.1404;-1.0356;1.670
6.052000;-0.2551;-0.6148;-1.2143;1.385
6.061000;0.1603;-0.1376;-1.3426;1.359
6.071000;0.4938;0.2666;-1.5023;1.604
6.081000;0.7350;0.6234;-1.6611;1.920
6.091000;0.9047;0.8947;-1.8382;2.236
6.132000;1.0057;1.0868;-2.0145;2.500
6.134000;1.0983;1.2277;-2.0824;2.655
6.135000;1.0853;1.3397;-2.0813;2.703
6.136000;1.0809;1.4269;-2.0255;2.703
6.141000;1.0243;1.4690;-1.8658;2.586
6.151000;0.9455;1.4140;-1.7387;2.432
6.161000;0.7840;1.2741;-1.6725;2.244
6.171000;0.5725;1.0882;-1.5773;2.000
6.181000;0.2912;0.8649;-1.4842;1.742
6.191000;0.0391;0.6877;-1.3322;1.500
6.243000;-0.1379;0.5215;-1.0925;1.218
6.244000;-0.2474;0.4092;-0.8850;1.006
6.245000;-0.3074;0.3463;-0.7038;0.842
6.246000;-0.2998;0.3198;-0.5572;0.709
6.247000;-0.2633;0.3134;-0.3962;0.570
6.256000;-0.1814;0.3645;-0.2374;0.471
6.261000;-0.0913;0.4145;-0.1606;0.454
6.271000;-0.0408;0.4805;-0.0619;0.486
6.281000;-0.0428;0.5141;0.0107;0.516
6.294000;-0.1305;0.4925;0.0334;0.511
6.339000;-0.2366;0.4582;-0.0047;0.516
6.340000;-0.2991;0.4175;-0.0245;0.514
6.341000;-0.3003;0.3841;0.0180;0.488
6.342000;-0.2734;0.3038;0.1190;0.426
6.342000;-0.2487;0.2278;0.2868;0.443
6.353000;-0.2648;0.0277;0.7728;0.817
6.361000;-0.2490;-0.0802;0.9699;1.005
6.372000;-0.2507;-0.1789;1.1058;1.148
6.381000;-0.2540;-0.2796;1.2822;1.337
6.391000;-0.2490;-0.3577;1.5434;1.604
6.430000;-0.2990;-0.3754;1.7950;1.858
6.431000;-0.4153;-0.3118;1.8048;1.878
6.432000;-0.5628;-0.1286;1.5277;1.633
6.434000;-0.6638;0.0836;1.0919;1.281
6.441000;-0.6974;0.2280;0.6492;0.980
6.451000;-0.6161;0.3438;0.3060;0.769
6.460000;-0.4976;0.4909;0.1445;0.714
6.472000;-0.2701;0.6902;0.1247;0.752
6.482000;0.1037;0.7029;0.3825;0.807
6.493000;0.5386;0.2841;1.1496;1.301
6.548000;0.8862;-0.4665;2.5105;2.703
6.549000;0.7436;-1.2435;4.0141;4.268
6.551000;0.2735;-2.0162;4.9120;5.317
6.552000;-0.4272;-2.6632;4.7747;5.484
6.554000;-1.2037;-3.1176;3.8455;5.095
6.555000;-1.8305;-3.1760;2.5268;4.452
6.561000;-2.1913;-2.7662;1.1111;3.700
6.571000;-2.1798;-2.0975;-0.1709;3.030
6.581000;-1.9273;-1.3186;-1.2964;2.671
6.591000;-1.4680;-0.6020;-1.8290;2.421
6.601000;-0.7756;0.1356;-1.6918;1.866
6.636000;-0.0012;0.7155;-1.1679;1.370
6.637000;0.5835;0.8994;-0.5457;1.203
6.638000;0.9880;0.7963;0.1433;1.277
6.641000;1.2041;0.5133;0.5451;1.418
6.653000;1.1861;0.1778;0.6674;1.373
6.661000;0.8353;-0.1635;0.5475;1.012
6.672000;0.3536;-0.5323;0.1980;0.669
6.681000;-0.3666;-1.1412;-0.2503;1.225
6.692000;-0.5427;-1.0850;-0.6703;1.386
6.730000;-0.6090;-0.8056;-1.1261;1.513
6.731000;-0.4888;-0.3585;-1.5484;1.663
6.732000;-0.2231;0.0607;-1.9672;1.981
6.733000;0.1266;0.4608;-2.1566;2.209
6.740000;0.4423;0.8474;-2.1661;2.368
6.753000;0.6980;1.2151;-2.1960;2.605
6.761000;0.8322;1.4145;-2.2778;2.807
6.772000;0.8518;1.4329;-2.3175;2.855
6.781000;0.8405;1.2537;-2.0448;2.541
6.792000;0.7451;0.9270;-1.6168;2.007
6.806000;0.6809;0.6497;-1.0406;1.403
6.811000;0.5798;0.5044;-0.5325;0.935
6.850000;0.4052;0.3788;-0.1062;0.565
6.851000;0.2192;0.1859;0.1910;0.345
6.852000;0.0950;-0.0039;0.2063;0.227
6.853000;-0.0389;-0.1033;0.1566;0.192
6.861000;-0.1760;-0.1135;0.0540;0.216
6.871000;-0.2582;-0.0232;-0.0059;0.259
6.881000;-0.3693;0.1089;-0.1612;0.417
6.891000;-0.3778;0.2786;-0.3519;0.587
6.938000;-0.2877;0.5163;-0.5342;0.797
6.940000;-0.1565;0.7258;-0.7181;1.033
6.941000;-0.0571;0.9373;-0.8413;1.261
6.942000;0.0066;1.1242;-0.8632;1.417
6.943000;0.0554;1.2157;-0.7324;1.420
6.955000;0.0757;1.2030;-0.4884;1.301
6.962000;0.0429;1.0901;-0.1299;1.099
6.972000;-0.0680;0.8382;0.1971;0.864
6.981000;-0.1236;0.5245;0.4497;0.702
6.991000;-0.1673;0.2221;0.8791;0.922
7.008000;-0.2704;-0.0592;1.4521;1.478
7.012000;-0.3767;-0.3395;2.5892;2.638
7.058000;-0.8421;-0.6286;2.6675;2.867
7.060000;-1.1974;-0.5437;2.2837;2.635
7.061000;-1.4223;-0.2493;1.6234;2.173
7.063000;-1.3609;-0.0080;0.7967;1.577
7.064000;-1.1186;0.2309;0.1938;1.159
7.071000;-0.8227;0.4101;0.1976;0.940
7.081000;-0.5461;0.4688;0.4462;0.847
7.091000;-0.3061;0.3474;0.8469;0.965
7.101000;-0.1137;0.0076;1.3695;1.374
7.137000;-0.0552;-0.4924;1.8035;1.870
7.139000;-0.2289;-0.9768;2.0583;2.290
7.140000;-0.5279;-1.2397;1.9202;2.346
7.142000;-0.7392;-1.3118;1.3912;2.050
7.151000;-0.8238;-1.3619;0.8220;1.791
7.161000;-0.7952;-1.4043;0.6675;1.746
7.172000;-0.6355;-1.3315;0.7861;1.672
7.181000;-0.3413;-1.0210;0.9538;1.438
7.191000;-0.0074;-0.5909;0.8714;1.053
7.202000;0.2749;-0.2166;0.5018;0.612
7.212000;0.4981;-0.0038;0.0640;0.502
7.256000;0.4897;0.0334;-0.1918;0.527
7.257000;0.7350;-0.0756;-0.2071;0.767
7.258000;0.6105;-0.2702;-0.0635;0.671
7.259000;0.3808;-0.4556;0.2044;0.628
7.261000;0.1515;-0.6099;0.4184;0.755
7.271000;-0.0517;-0.7699;0.3945;0.867
7.281000;-0.1999;-0.8925;0.1506;0.927
7.292000;-0.3038;-0.8566;-0.1336;0.919
7.302000;-0.3532;-0.7138;-0.5167;0.949
7.328000;-0.2977;-0.4495;-0.9209;1.067
7.330000;-0.2513;-0.1271;-1.2039;1.236
7.331000;-0.2194;0.1576;-1.4374;1.463
7.341000;-0.0405;0.7134;-1.9556;2.082
7.351000;0.0819;0.9585;-2.1493;2.355
7.361000;0.2163;1.1899;-2.2855;2.586
7.372000;0.3380;1.3425;-2.2962;2.681
7.380000;0.3885;1.4284;-2.2172;2.666
7.395000;0.3513;1.4677;-2.0439;2.541
7.400000;0.3123;1.4523;-1.9149;2.424
7.434000;0.2830;1.3744;-1.8518;2.323
7.435000;0.2463;1.2781;-1.7407;2.174
7.436000;0.2040;1.1597;-1.5086;1.914
7.441000;0.1447;1.0655;-1.1541;1.577
7.450000;0.0714;0.9816;-0.7994;1.268
7.461000;0.0196;0.8549;-0.5221;1.002
7.471000;0.0091;0.7042;-0.3403;0.782
7.481000;-0.0049;0.5275;-0.2097;0.568
7.491000;-0.0487;0.3431;-0.0453;0.349
7.500000;-0.0852;0.2547;0.1263;0.297
7.511000;-0.1070;0.1671;0.3351;0.389
7.539000;-0.1139;0.1292;0.5126;0.541
7.540000;-0.0531;0.1138;0.6194;0.632
7.541000;0.0692;0.1069;0.7392;0.750
7.551000;0.2134;0.0892;0.9162;0.945
7.561000;0.3015;0.0709;1.1849;1.225
7.571000;0.3069;0.0569;1.4581;1.491
7.580000;0.3556;0.0316;1.7007;1.738
7.591000;0.4527;0.0035;1.8711;1.925
7.602000;0.5184;-0.0416;2.0001;2.067
7.624000;0.5436;-0.1936;2.1885;2.263
7.625000;0.4298;-0.3637;2.3848;2.450
7.631000;0.2666;-0.4338;2.4735;2.525
7.641000;0.1404;-0.2956;2.2707;2.294
7.651000;0.0209;-0.0292;1.8280;1.828
7.661000;0.0144;0.2934;1.5797;1.607
7.672000;0.1194;0.6786;1.4294;1.587
7.681000;0.5888;1.1647;1.1483;1.738
7.691000;0.9963;0.7852;1.9765;2.349
7.701000;1.1822;0.0049;3.5911;3.781
7.711000;0.9448;-0.8276;5.4318;5.575
7.742000;0.3448;-1.6767;6.4501;6.673
7.744000;-0.4292;-2.4448;6.3116;6.782
7.746000;-1.2203;-3.0541;5.1085;6.076
7.750000;-1.8301;-3.3353;3.0941;4.904
7.761000;-2.0628;-3.0502;0.9810;3.811
7.772000;-1.9738;-2.3832;-0.5323;3.140
7.781000;-1.8302;-1.6764;-1.5211;2.911
7.791000;-1.4570;-0.9227;-2.3214;2.892
7.801000;-0.8608;-0.2443;-2.2256;2.399
7.811000;-0.3270;0.1020;-1.4593;1.499
7.843000;0.1121;0.0556;-0.4149;0.433
7.844000;0.4263;-0.2686;0.5415;0.740
7.845000;0.5721;-0.6096;0.9930;1.298
7.851000;0.4969;-0.8828;0.8905;1.349
7.861000;0.1981;-1.1629;0.4126;1.250
7.872000;-0.1381;-1.3828;-0.1565;1.399
7.881000;-0.3424;-1.5176;-0.7064;1.709
7.893000;-0.4172;-1.5630;-1.2504;2.045
7.901000;-0.4508;-1.4204;-1.5621;2.159
7.929000;-0.4280;-1.1048;-1.7621;2.123
7.930000;-0.3129;-0.7423;-1.9505;2.110
7.931000;-0.1756;-0.4278;-2.1600;2.209
7.940000;-0.0561;-0.1527;-2.4889;2.494
7.951000;0.0149;0.1119;-2.9901;2.992
7.961000;0.0485;0.3384;-3.4703;3.487
7.972000;0.0246;0.5168;-3.7980;3.833
7.980000;0.0348;0.6870;-3.8863;3.947
7.991000;0.1101;0.7989;-3.7471;3.833
8.001000;0.2311;0.8370;-3.4247;3.533
8.011000;0.3221;0.7057;-2.4066;2.529
8.049000;0.3054;0.5848;-1.8537;1.968
8.051000;0.3037;0.5349;-1.3813;1.512
8.052000;0.2911;0.4926;-0.9436;1.104
8.053000;0.3279;0.5052;-0.5067;0.787
8.061000;0.2890;0.5103;-0.2033;0.621
8.072000;0.2560;0.5424;0.0266;0.600
8.081000;0.1676;0.6788;0.1820;0.722
8.091000;0.0389;0.7919;0.1622;0.809
8.101000;-0.0735;0.9042;0.0425;0.908
8.112000;-0.1768;0.9741;0.0433;0.991
8.158000;-0.2551;1.0385;0.1353;1.078
8.160000;-0.2977;1.0618;0.1964;1.120
8.160000;-0.2800;1.0995;0.2480;1.161
8.161000;-0.2849;1.0985;0.2793;1.169
8.162000;-0.2620;1.0904;0.1966;1.139
8.172000;-0.0894;1.0634;0.2225;1.090
8.180000;0.1081;1.0050;0.6345;1.193
8.191000;0.2861;0.8780;1.3485;1.634
8.201000;0.3847;0.6664;1.9864;2.130
8.214000;0.3501;0.3518;2.4791;2.528
8.254000;-0.3405;-0.4098;2.9032;2.952
8.256000;-0.9079;-0.5483;2.6648;2.868
8.257000;-1.3076;-0.3756;1.9617;2.387
8.261000;-1.3144;-0.0678;1.0053;1.656
8.272000;-1.0476;0.1751;0.3492;1.118
8.282000;-0.7171;0.3838;0.1353;0.824
8.291000;-0.3989;0.5853;0.4492;0.839
8.301000;-0.1055;0.6197;1.2192;1.372
8.313000;0.1933;0.3343;2.0648;2.101
8.362000;0.6364;-1.0011;3.2644;3.473
8.365000;0.6017;-0.9536;3.2611;3.451
8.366000;0.2219;-2.1498;3.3888;4.019
8.368000;-0.3084;-2.5768;2.9405;3.922
8.369000;-0.8409;-2.7063;2.3170;3.661
8.375000;-1.0806;-2.4854;1.4452;3.071
8.381000;-0.9729;-1.9408;0.5235;2.233
8.391000;-0.7048;-1.2138;-0.2083;1.419
8.401000;-0.3864;-0.5531;-0.8142;1.057
8.412000;0.0385;0.0602;-1.2774;1.279
8.450000;0.4820;0.5286;-1.7018;1.846
8.452000;0.8663;0.7511;-1.8678;2.192
8.453000;1.1016;0.7110;-1.6371;2.097
8.456000;1.2008;0.4449;-0.9965;1.623
8.461000;1.1811;0.0714;-0.1375;1.191
8.473000;1.0102;-0.3153;0.6178;1.225
8.480000;0.6659;-0.7338;1.0084;1.414
8.490000;0.2595;-1.0906;1.1087;1.577
8.501000;-0.1068;-1.2174;0.9988;1.578
8.512000;-0.3658;-1.0764;0.6628;1.316
8.548000;-0.4654;-0.7261;0.0611;0.865
8.549000;-0.4449;-0.2955;-0.7488;0.920
8.550000;-0.3851;0.0621;-1.4187;1.471
8.551000;-0.2271;0.5255;-2.0120;2.092
8.561000;-0.0577;0.9758;-2.5166;2.700
8.572000;0.0168;1.3104;-2.7889;3.081
8.580000;0.0430;1.4890;-2.6362;3.028
8.591000;0.0295;1.5060;-2.3783;2.815
8.601000;0.0516;1.3740;-2.0556;2.473
8.611000;0.0772;1.1540;-1.7306;2.081
8.657000;0.0902;0.9271;-1.5539;1.812
8.658000;0.0306;0.7472;-1.5186;1.693
8.659000;-0.0373;0.5991;-1.3887;1.513
8.661000;-0.1038;0.4491;-1.1273;1.218
8.661000;-0.1591;0.2703;-0.8623;0.918
8.673000;-0.1880;0.1306;-0.2789;0.361
8.681000;-0.1109;-0.0209;-0.0390;0.119
8.691000;-0.0720;-0.0229;0.0502;0.091
8.701000;-0.0299;0.0406;0.0559;0.075
8.712000;0.0915;0.1298;0.0342;0.162
8.758000;0.2270;0.2334;-0.0173;0.326
8.760000;0.3409;0.3321;-0.0411;0.478
8.761000;0.4358;0.3995;0.0488;0.593
8.762000;0.4961;0.4631;0.1149;0.688
8.763000;0.5021;0.5062;0.0398;0.714
8.773000;0.5286;0.6017;0.0330;0.802
8.782000;0.5370;0.7501;0.1640;0.937
8.792000;0.6062;0.8304;0.4338;1.116
8.801000;0.6807;0.8362;0.8690;1.385
8.811000;0.7953;0.7827;1.4466;1.827
8.857000;0.8588;0.6334;1.9286;2.204
8.859000;0.9240;0.4233;2.3619;2.571
8.860000;0.8774;0.2716;2.6915;2.844
8.861000;0.7147;0.1819;2.8839;2.977
8.862000;0.4794;0.1618;2.9272;2.971
8.873000;0.2485;0.2015;2.6514;2.671
8.881000;0.0419;0.2372;2.2215;2.234
8.891000;-0.1028;0.2930;1.8455;1.871
8.901000;-0.1213;0.3816;1.6175;1.666
8.913000;0.0052;0.4130;1.6906;1.740
8.949000;0.2669;0.2465;2.1649;2.195
8.951000;0.4419;-0.2503;3.0707;3.112
8.952000;0.4689;-0.8459;4.0928;4.206
8.953000;0.2026;-1.4185;4.8413;5.049
8.961000;-0.2348;-1.9517;5.0088;5.381
8.974000;-0.7795;-2.3729;4.2742;4.950
8.981000;-1.2244;-2.4953;2.5950;3.803
8.991000;-1.4044;-2.1868;0.4436;2.637
9.001000;-1.4115;-1.4775;-2.6414;3.340
9.013000;-1.2379;0.5393;-3.3882;3.647
9.060000;-0.7482;1.3833;-3.5423;3.876
9.063000;-0.1575;1.7659;-3.0552;3.532
9.065000;0.3678;1.7074;-2.2433;2.843
9.066000;0.8096;1.3176;-1.4186;2.099
9.067000;1.1800;0.8730;-0.8089;1.676
9.073000;1.3395;0.4850;-0.3948;1.478
9.082000;1.1678;0.0620;-0.0621;1.171
9.091000;0.7508;-0.5618;0.3895;1.015
9.101000;0.3301;-1.1905;0.9218;1.541
9.111000;-0.0732;-1.6611;1.2595;2.086
9.121000;-0.4976;-1.9534;1.1165;2.304
9.151000;-0.8361;-2.0184;0.5477;2.252
9.153000;-0.9534;-1.7952;-0.3463;2.062
9.154000;-0.8850;-1.3240;-1.1993;1.994
9.161000;-0.7138;-0.7774;-1.7498;2.043
9.171000;-0.4740;-0.2418;-2.1025;2.169
9.181000;-0.2001;0.2786;-2.5067;2.530
9.195000;0.0553;0.7603;-2.8781;2.977
9.201000;0.2489;1.1934;-3.2089;3.433
9.233000;0.3392;1.5152;-3.4098;3.747
9.235000;0.3358;1.6943;-3.3906;3.805
9.236000;0.3404;1.7155;-3.1444;3.598
9.241000;0.2340;1.5119;-2.7367;3.135
9.251000;0.0414;1.1844;-2.1504;2.455
9.261000;-0.1909;0.8946;-1.5667;1.814
9.271000;-0.3419;0.6782;-1.1804;1.404
9.281000;-0.4482;0.5208;-0.9061;1.137
9.300000;-0.5264;0.4426;-0.6873;0.972
9.303000;-0.5402;0.4345;-0.4142;0.808
9.340000;-0.4998;0.4772;-0.0987;0.698
9.341000;-0.4380;0.5447;0.1900;0.724
9.342000;-0.3604;0.5607;0.4335;0.795
9.343000;-0.3204;0.6326;0.4980;0.867
9.351000;-0.3268;0.7464;0.2302;0.847
9.361000;-0.3241;0.8048;-0.1234;0.876
9.371000;-0.3527;0.8134;-0.2625;0.925
9.381000;-0.3697;0.8134;-0.1563;0.907
9.399000;-0.3380;0.8006;0.0608;0.871
9.402000;-0.3308;0.7377;0.3422;0.878
9.437000;-0.3303;0.6319;0.7033;1.002
9.438000;-0.3223;0.4245;1.0627;1.189
9.439000;-0.3460;0.1295;1.4078;1.455
9.442000;-0.5119;-0.1710;1.6571;1.743
9.451000;-0.7935;-0.3320;1.7954;1.991
9.461000;-1.1398;-0.2455;1.6888;2.052
9.471000;-1.3476;0.0190;1.1340;1.761
9.482000;-1.2411;0.2953;0.6383;1.427
9.499000;-0.8501;0.4841;0.5361;1.116
9.504000;-0.2820;0.5518;0.9642;1.146
9.546000;0.8002;-0.3980;3.0844;3.211
9.548000;1.0361;-1.2940;4.3181;4.625
9.550000;0.7420;-2.2293;5.4331;5.919
9.552000;-0.0609;-3.1418;5.7876;6.586
9.561000;-0.9915;-3.7079;5.2017;6.464
9.571000;-1.6391;-3.7991;3.8923;5.681
9.581000;-1.8731;-3.3233;2.1620;4.385
9.598000;-1.7048;-2.5322;0.6720;3.126
9.642000;-0.3503;-0.5764;-1.1862;1.365
9.643000;0.6520;0.4128;-1.4680;1.658
9.644000;1.5903;1.1218;-1.4652;2.436
9.646000;2.3603;1.3995;-1.0626;2.943
9.651000;2.8340;1.2748;-0.3748;3.130
9.661000;2.9352;0.9792;0.3996;3.120
9.671000;2.0931;0.2273;1.5631;2.622
9.681000;1.1801;-0.1228;1.1091;1.624
9.695000;0.3922;-0.3813;0.1154;0.559
9.701000;-0.1302;-0.4311;-0.7885;0.908
9.733000;-0.3754;-0.2875;-1.3837;1.462
9.734000;-0.4413;0.0439;-1.7424;1.798
9.735000;-0.4011;0.3996;-1.9641;2.044
9.744000;-0.2433;0.7572;-2.0967;2.242
9.750000;-0.0353;1.0398;-2.2326;2.463
9.762000;0.1513;1.2498;-2.3420;2.659
9.771000;0.2577;1.3780;-2.4049;2.784
9.781000;0.2994;1.3909;-2.3209;2.722
9.796000;0.2563;1.3123;-2.2135;2.586
9.801000;0.1967;1.2046;-2.0585;2.393
9.833000;0.1259;1.0795;-1.8620;2.156
9.834000;0.0962;0.9542;-1.7004;1.952
9.836000;0.1045;0.8157;-1.6105;1.808
9.844000;0.1206;0.6718;-1.4916;1.640
9.850000;0.1259;0.5277;-1.3271;1.434
9.861000;0.1322;0.4013;-1.1229;1.200
9.871000;0.1268;0.2880;-0.9115;0.964
9.881000;0.0429;0.1728;-0.7612;0.782
9.896000;-0.0420;0.0456;-0.5740;0.577
9.901000;-0.1263;-0.0688;-0.4302;0.454
9.934000;-0.1987;-0.1649;-0.3692;0.451
9.936000;-0.2636;-0.2502;-0.3621;0.513
9.936000;-0.2962;-0.2949;-0.4316;0.601
9.945000;-0.2747;-0.2594;-0.4317;0.574
9.951000;-0.2309;-0.1658;-0.3218;0.429
9.961000;-0.1417;-0.0161;-0.1915;0.239
9.971000;-0.0030;0.1570;-0.0051;0.157
9.981000;0.0988;0.3471;0.2865;0.461
9.996000;0.2159;0.4694;0.5109;0.727
10.001000;0.5395;0.4227;1.3157;1.483
10.033000;0.6530;0.2468;2.0266;2.143
10.034000;0.6262;0.0385;2.7789;2.849
10.035000;0.4486;-0.0556;3.2856;3.317
10.044000;0.1497;-0.0521;3.2073;3.211
10.051000;-0.1688;-0.0673;2.6283;2.635
10.061000;-0.4496;-0.2043;1.9019;1.965
10.071000;-0.6954;-0.2721;1.3892;1.577
10.081000;-0.8879;-0.1833;1.1877;1.494
10.096000;-0.9140;-0.0144;1.1855;1.497
10.101000;-0.7101;0.0342;1.2815;1.466
10.133000;-0.1744;-0.1769;1.7158;1.734
10.135000;0.3959;-0.8050;2.8314;2.970
10.136000;0.6137;-1.4580;4.0526;4.350
10.144000;0.3621;-2.1586;5.0846;5.536
10.152000;-0.1613;-2.6892;5.4454;6.075
10.162000;-0.7481;-2.7779;4.5595;5.391
10.171000;-1.1835;-2.4187;2.5476;3.707
10.181000;-1.3823;-1.7546;0.5810;2.308
10.195000;-1.3354;-0.8595;-1.0755;1.918
10.201000;-0.9893;0.1329;-2.4216;2.619
10.231000;-0.6026;0.9618;-3.1303;3.330
10.233000;-0.2124;1.4838;-2.9642;3.322
10.234000;0.2155;1.5402;-2.1210;2.630
10.242000;0.7120;1.1090;-0.9439;1.621
10.251000;1.0603;0.5340;-0.0259;1.187
10.261000;1.0838;0.0341;0.5282;1.206
10.271000;0.7348;-0.4190;1.1288;1.411
10.282000;0.2951;-0.9240;1.4699;1.761
10.296000;-0.0899;-1.3488;1.5092;2.026
10.301000;-0.3398;-1.6388;1.1655;2.039
10.347000;-0.5108;-1.7108;0.3615;1.822
10.348000;-0.5760;-1.4989;-0.5933;1.712
10.350000;-0.3276;-0.5189;-1.7793;1.882
10.350000;-0.0458;-0.0065;-1.9387;1.939
10.352000;0.2239;0.4490;-2.1323;2.191
10.362000;0.3910;0.8901;-2.5278;2.708
10.371000;0.4813;1.3239;-3.0067;3.320
10.381000;0.5336;1.6148;-3.3646;3.770
10.396000;0.5115;1.7632;-3.6127;4.052
10.401000;0.4968;1.7832;-3.5991;4.047
10.442000;0.4892;1.6982;-3.3541;3.791
10.444000;0.4452;1.5285;-2.8332;3.250
10.445000;0.3364;1.3043;-2.1108;2.504
10.446000;0.1881;1.0830;-1.3508;1.742
10.451000;0.0990;0.8614;-0.7755;1.163
10.463000;0.0539;0.6103;-0.3691;0.715
10.472000;-0.0131;0.3866;0.0914;0.397
10.483000;-0.1075;0.1495;0.5067;0.539
10.499000;-0.2427;0.0028;0.8086;0.844
10.502000;-0.3878;-0.0457;1.0201;1.092
10.561000;-0.4873;0.0155;0.9557;1.073
10.563000;-0.5240;0.1661;0.6683;0.865
10.564000;-0.4736;0.3815;0.3074;0.681
10.565000;-0.3702;0.5930;-0.0638;0.702
10.566000;-0.2295;0.7696;-0.4873;0.939
10.566000;-0.0404;0.8918;-0.8130;1.207
10.571000;0.2128;0.9691;-0.7995;1.274
10.581000;0.4288;0.8837;-0.4040;1.062
10.598000;0.4816;0.5942;0.2683;0.811
10.602000;0.3896;0.0989;0.9734;1.053
10.646000;0.1615;-0.5000;1.5071;1.596
10.647000;-0.1146;-1.0282;1.8853;2.150
10.649000;-0.5352;-1.4551;2.2423;2.726
10.650000;-1.1343;-1.5910;2.1848;2.931
10.652000;-1.5432;-1.1658;1.5489;2.478
10.661000;-1.3525;-0.1232;-0.1147;1.363
10.671000;-0.9454;0.2878;-0.2102;1.010
10.681000;-0.5281;0.4893;0.2593;0.765
10.698000;-0.1711;0.5479;1.0134;1.165
10.702000;0.1116;0.3823;1.8440;1.887
10.736000;0.2343;-0.1009;2.5264;2.539
10.738000;0.2057;-0.7253;3.0899;3.181
10.739000;0.0030;-1.2484;3.4656;3.684
10.742000;-0.2370;-1.6279;3.5496;3.912
10.751000;-0.4535;-1.7461;3.3161;3.775
10.761000;-0.5732;-1.5399;2.8069;3.252
10.771000;-0.5319;-1.0645;2.1406;2.449
10.781000;-0.3208;-0.5480;1.3146;1.460
10.796000;-0.0433;-0.1306;0.4591;0.479
10.801000;0.3702;0.1249;-0.2610;0.470
10.836000;0.6220;0.2141;-0.6021;0.892
10.838000;0.7182;0.1591;-0.4231;0.849
10.838000;0.7472;-0.0123;-0.1194;0.757
10.847000;0.7032;-0.2613;0.1573;0.766
10.851000;0.5188;-0.4671;0.1489;0.714
10.861000;0.3750;-0.6423;-0.1503;0.759
10.871000;0.2661;-0.7704;-0.3894;0.903
10.881000;0.1254;-0.8451;-0.4641;0.972
10.891000;0.0133;-0.7397;-0.4007;0.841
10.902000;0.0204;-0.4784;-0.4057;0.628
10.942000;0.0902;-0.1391;-0.5884;0.611
10.944000;0.1649;0.2151;-0.9046;0.944
10.945000;0.2614;0.5038;-1.2982;1.417
10.946000;0.3217;0.6998;-1.6637;1.833
10.952000;0.2918;0.8623;-2.0114;2.208
10.963000;0.2021;1.0526;-2.3399;2.574
10.971000;0.1157;1.1494;-2.5715;2.819
10.981000;0.0763;1.1581;-2.6299;2.875
10.999000;0.0106;1.0463;-2.1318;2.375
11.003000;-0.0745;0.7446;-1.8112;1.960
11.048000;-0.1064;0.5694;-1.4680;1.578
11.049000;-0.1207;0.3871;-1.1991;1.266
11.050000;-0.1220;0.2392;-0.9134;0.952
11.051000;-0.1333;0.1161;-0.5224;0.552
11.053000;-0.1336;0.0259;-0.1244;0.184
11.061000;-0.1285;-0.0571;0.1444;0.202
11.071000;-0.0986;-0.1370;0.2829;0.329
11.081000;-0.0505;-0.1983;0.2876;0.353
11.098000;0.0319;-0.2128;0.1237;0.248
11.101000;0.0943;-0.2009;-0.0447;0.226
11.148000;0.1131;-0.1101;-0.0907;0.182
11.150000;0.1787;0.0783;-0.2083;0.285
11.151000;0.2530;0.3281;-0.4633;0.622
11.152000;0.3371;0.5676;-0.6355;0.916
11.153000;0.3821;0.7730;-0.6376;1.072
11.161000;0.4914;0.8883;-0.5219;1.141
11.171000;0.6582;0.9571;-0.2439;1.187
11.181000;0.8429;0.9268;0.1877;1.267
11.199000;1.0547;0.7882;0.8360;1.560
11.202000;1.2499;0.5600;1.7921;2.255
11.246000;1.2876;0.2406;2.8165;3.106
11.248000;1.1509;-0.0817;3.5594;3.742
11.250000;0.9215;-0.3371;4.0325;4.150
11.251000;0.6033;-0.4966;3.9762;4.052
11.252000;0.2579;-0.5815;3.4419;3.500
11.261000;-0.0185;-0.6306;2.9320;2.999
11.271000;-0.2038;-0.6335;2.6856;2.767
11.282000;-0.2768;-0.5991;2.5481;2.632
11.298000;-0.2734;-0.5724;2.4214;2.503
11.303000;-0.1785;-0.7835;2.6954;2.813
11.348000;-0.1670;-0.7586;2.6951;2.805
11.350000;-0.2040;-1.0313;2.9029;3.087
11.351000;-0.7065;-1.3664;2.2528;2.728
11.352000;-0.9642;-1.1869;1.2994;2.007
11.354000;-1.2255;-0.9131;0.2439;1.548
11.361000;-1.4141;-0.5737;-0.7021;1.680
11.371000;-1.4016;-0.0915;-1.5854;2.118
11.381000;-1.2897;0.3669;-2.2509;2.620
11.399000;-1.0987;0.8048;-2.3870;2.748
11.402000;-0.8360;0.9802;-2.1715;2.525
11.446000;-0.5195;0.8235;-1.4359;1.735
11.448000;-0.1499;0.4492;-0.5010;0.689
11.449000;0.2257;0.0025;0.3296;0.399
11.450000;0.3997;-0.4603;1.1770;1.325
11.451000;0.2803;-0.9084;2.1529;2.353
11.461000;-0.0752;-1.3862;2.8154;3.139
11.471000;-0.4172;-1.7842;2.7452;3.301
11.481000;-0.6642;-1.9310;2.0337;2.882
11.498000;-0.8280;-1.8264;0.9393;2.214
11.502000;-0.8370;-1.5350;-0.1503;1.755
11.550000;-0.7252;-1.1741;-1.0199;1.716
11.551000;-0.4945;-0.7124;-1.5369;1.765
11.552000;-0.1834;-0.1889;-2.0164;2.034
11.553000;0.0855;0.3499;-2.5424;2.568
11.554000;0.2714;0.8507;-3.0144;3.144
11.562000;0.4075;1.1934;-3.4774;3.699
11.571000;0.5182;1.3672;-3.8236;4.094
11.581000;0.5881;1.4003;-3.9979;4.277
11.591000;0.5847;1.3830;-3.8926;4.172
11.601000;0.5457;1.3261;-3.5865;3.863
11.643000;0.4569;1.2509;-3.0713;3.348
11.644000;0.3433;1.1003;-2.4628;2.719
11.646000;0.2411;0.9035;-1.8471;2.070
11.647000;0.1677;0.7061;-1.2804;1.472
11.651000;0.1185;0.5211;-0.7627;0.931
11.661000;0.0847;0.1371;0.0125;0.162
11.671000;0.0407;-0.0663;0.2586;0.270
11.682000;-0.0613;-0.1827;0.4391;0.479
11.691000;-0.2233;-0.1180;0.5670;0.621
11.702000;-0.3930;0.0212;0.5433;0.671
11.746000;-0.5220;0.1492;0.3354;0.638
11.747000;-0.5333;0.2918;0.0286;0.609
11.748000;-0.4241;0.4147;-0.2637;0.649
11.749000;-0.2428;0.5092;-0.2531;0.618
11.752000;-0.1000;0.5127;0.0934;0.531
11.761000;0.1064;0.4407;0.7950;0.915
11.771000;0.3084;0.2170;1.7714;1.811
11.781000;0.4440;-0.1770;2.6336;2.677
11.791000;0.4270;-0.6404;3.2229;3.314
11.802000;0.1879;-1.1274;3.6785;3.852
11.845000;-0.3246;-1.4886;3.8135;4.107
11.847000;-0.8850;-1.5271;3.3156;3.756
11.849000;-1.1768;-1.1338;2.2351;2.769
11.850000;-1.0894;-0.5651;0.9944;1.580
11.851000;-0.7294;-0.0592;0.2266;0.766
11.861000;-0.1965;0.4131;-0.0818;0.465
11.871000;0.3584;0.8556;-0.0326;0.928
11.881000;0.8463;1.0564;0.4888;1.439
11.891000;1.1351;0.7655;1.3813;1.945
11.902000;1.1150;0.1213;2.4833;2.725
11.933000;0.7378;-0.4924;3.2757;3.394
11.935000;0.1795;-1.0391;3.4391;3.597
11.936000;-0.2730;-1.4622;2.9365;3.292
11.940000;-0.4760;-1.6479;2.1173;2.725
11.951000;-0.4443;-1.4757;1.2816;2.004
11.961000;-0.2079;-1.0335;0.6483;1.238
11.971000;0.2294;-0.5186;0.0364;0.568
11.981000;0.8079;-0.0779;-0.5099;0.959
11.992000;1.7590;0.3249;-0.6725;1.911
12.002000;1.9072;0.2505;-0.2566;1.941
12.033000;1.7731;0.0621;0.2485;1.791
12.035000;1.3699;-0.1837;0.6286;1.518
12.036000;0.7381;-0.4212;0.5673;1.022
12.040000;0.1916;-0.6106;0.0993;0.648
12.051000;-0.1368;-0.6176;-0.5070;0.811
12.061000;-0.3538;-0.4581;-1.2540;1.381
12.071000;-0.4529;-0.1792;-1.9419;2.002
12.081000;-0.4453;0.1923;-2.2069;2.260
12.092000;-0.3256;0.5846;-2.2455;2.343
12.101000;-0.1329;0.9537;-2.2734;2.469
12.153000;0.0234;1.1800;-2.3968;2.672
12.154000;0.0763;1.2485;-2.4842;2.781
12.156000;-0.0055;1.2342;-2.3704;2.672
12.157000;-0.1362;1.1624;-2.2266;2.516
12.158000;-0.3271;1.0769;-2.1606;2.436
12.164000;-0.5570;0.9673;-2.0884;2.368
12.171000;-0.7336;0.8638;-1.9693;2.272
12.181000;-0.8116;0.7823;-1.8319;2.151
12.191000;-0.8250;0.7157;-1.6944;2.016
12.202000;-0.8107;0.7024;-1.5423;1.879
12.242000;-0.7431;0.7203;-1.3852;1.729
12.243000;-0.6677;0.7216;-1.1634;1.523
12.244000;-0.5907;0.7152;-0.7262;1.178
12.244000;-0.5523;0.6498;-0.2435;0.887
12.250000;-0.5795;0.5168;0.1148;0.785
12.261000;-0.6004;0.3686;0.2604;0.751
12.271000;-0.5990;0.2451;0.2865;0.708
12.281000;-0.5745;0.1413;0.2915;0.660
12.291000;-0.5394;0.1100;0.3194;0.636
12.301000;-0.4685;0.1745;0.4000;0.640
12.333000;-0.2720;0.3167;0.5775;0.713
12.334000;-0.0729;0.3298;0.7607;0.832
12.335000;0.1217;0.2678;1.0571;1.097
12.341000;0.2611;0.1767;1.5206;1.553
12.351000;0.2713;0.0822;2.0792;2.098
12.361000;0.2705;0.0124;2.5096;2.524
12.372000;0.2774;-0.0867;2.6025;2.619
12.382000;0.3529;-0.2474;2.4552;2.493
12.392000;0.4346;-0.3747;2.2710;2.342
12.406000;0.5218;-0.3721;2.1058;2.201
12.459000;0.7059;-0.3052;2.0166;2.158
12.461000;1.0042;-0.3796;2.1872;2.436
12.462000;1.2470;-0.7722;2.7297;3.099
12.463000;1.3379;-1.2749;3.4580;3.921
12.464000;1.1418;-1.8286;3.9979;4.542
12.465000;0.6538;-2.3730;4.2832;4.940
12.471000;0.0873;-2.8294;4.2324;5.092
12.481000;-0.4584;-3.1732;3.5471;4.781
12.491000;-0.8648;-3.1598;2.3461;4.029
12.502000;-1.0434;-2.6037;0.9587;2.964
12.539000;-1.0124;-1.8427;-0.3330;2.129
12.540000;-0.7057;-1.0995;-1.4302;1.937
12.542000;-0.2453;-0.4570;-2.2340;2.293
12.544000;0.1512;0.0022;-2.3521;2.357
12.551000;0.3250;0.1247;-1.9342;1.965
12.562000;0.3382;-0.1310;-1.2966;1.346
12.571000;0.2423;-0.4563;-0.7705;0.928
12.581000;0.1120;-0.7265;-0.5606;0.924
12.591000;0.0195;-0.8711;-0.6106;1.064
12.601000;-0.0699;-0.9127;-0.6479;1.121
12.636000;-0.1723;-0.8833;-0.5947;1.079
12.638000;-0.2487;-0.8828;-0.5124;1.051
12.639000;-0.2422;-0.8657;-0.4288;0.996
12.641000;-0.1333;-0.8111;-0.3552;0.895
12.651000;0.1057;-0.4700;-0.7932;0.928
12.663000;0.2152;-0.1938;-1.2876;1.320
12.671000;0.3528;0.0689;-1.7310;1.768
12.681000;0.5162;0.3381;-2.0948;2.184
12.691000;0.6654;0.5967;-2.4080;2.569
12.701000;0.7340;0.8724;-2.6555;2.890
12.744000;0.7361;1.1579;-2.8015;3.119
12.746000;0.7174;1.4219;-2.8760;3.288
12.747000;0.6955;1.6206;-2.7762;3.289
12.748000;0.6370;1.6984;-2.4971;3.086
12.751000;0.5172;1.6502;-2.0696;2.697
12.763000;0.3164;1.4833;-1.6445;2.237
12.771000;0.0739;1.2507;-1.2311;1.757
12.781000;-0.1667;1.0292;-0.8797;1.364
12.791000;-0.2874;0.8172;-0.6334;1.073
12.801000;-0.3140;0.6463;-0.3509;0.800
12.844000;-0.3052;0.5186;0.0082;0.602
12.845000;-0.3363;0.4390;0.3998;0.682
12.846000;-0.4308;0.4153;0.7556;0.964
12.847000;-0.5981;0.3952;1.0016;1.232
12.851000;-0.7803;0.3536;1.0613;1.364
12.862000;-0.8949;0.3035;0.9289;1.325
12.871000;-0.9389;0.3002;0.6379;1.174
12.881000;-0.9128;0.3822;0.3260;1.042
12.891000;-0.8570;0.4710;0.0681;0.980
12.901000;-0.7284;0.5609;-0.1541;0.932
12.918000;-0.5232;0.6389;-0.3289;0.889
12.921000;-0.2736;0.6827;-0.1982;0.762
12.956000;-0.0577;0.5917;0.1827;0.622
12.958000;0.0925;0.3428;0.7456;0.826
12.958000;0.1482;0.0175;1.4239;1.432
12.961000;0.0525;-0.2450;2.0373;2.053
12.971000;-0.2473;-0.3524;2.2466;2.287
12.981000;-0.5637;-0.1727;1.1688;1.309
12.991000;-0.4726;0.7047;0.3887;0.933
13.001000;-0.2012;0.9670;0.0240;0.988
13.021000;0.1105;1.2253;0.0094;1.230
13.023000;0.4165;1.3336;0.3504;1.440
13.065000;0.8771;1.0535;1.1090;1.763
13.066000;1.3915;0.3207;2.1560;2.586
13.067000;1.6133;-0.6219;3.5372;3.937
13.069000;1.2176;-1.6015;5.0893;5.472
13.072000;0.2667;-2.5278;5.9606;6.480
13.081000;-0.8112;-3.1614;5.6281;6.506
13.091000;-1.6008;-3.2951;4.3706;5.703
13.102000;-1.9654;-2.9008;2.4909;4.299
13.117000;-1.8084;-2.1628;0.7789;2.925
13.121000;-1.2737;-1.3287;-0.4366;1.892
13.157000;-0.5374;-0.4204;-1.2193;1.397
13.159000;0.2647;0.4910;-1.4993;1.600
13.161000;0.9953;1.1861;-1.5379;2.182
13.167000;1.5447;1.4754;-1.4073;2.558
13.171000;1.9227;1.2859;-0.9591;2.504
13.181000;2.0378;0.8830;-0.3301;2.245
13.191000;1.7924;0.4421;0.2802;1.867
13.201000;1.1600;-0.0009;0.5489;1.283
13.219000;0.4304;-0.4271;0.3236;0.687
13.222000;-0.1161;-0.7268;-0.0563;0.738
13.252000;-0.3946;-0.8103;-0.6115;1.089
13.254000;-0.5074;-0.6375;-1.1877;1.440
13.255000;-0.4738;-0.2266;-1.5897;1.674
13.263000;-0.3046;0.2782;-1.8223;1.868
13.271000;-0.0228;0.7030;-2.0785;2.194
13.281000;0.2290;0.9977;-2.3223;2.538
13.291000;0.3387;1.2195;-2.5410;2.839
13.301000;0.3214;1.2837;-2.6618;2.973
13.317000;0.1899;1.1699;-2.6334;2.888
13.321000;-0.2336;0.7760;-2.3230;2.460
13.359000;-0.3644;0.5387;-2.1507;2.247
13.361000;-0.4347;0.3159;-1.9272;2.001
13.362000;-0.4495;0.1510;-1.6092;1.678
13.364000;-0.3948;0.0801;-1.2362;1.300
13.371000;-0.2689;0.0671;-0.8679;0.911
13.382000;-0.0772;0.0673;-0.4971;0.508
13.391000;0.0737;0.0642;-0.0917;0.134
13.401000;0.2009;0.0272;0.2850;0.350
13.412000;0.2483;-0.0445;0.5407;0.597
13.421000;0.2302;-0.1339;0.6971;0.746
13.470000;0.1416;-0.1740;0.7352;0.769
13.471000;0.0217;-0.1604;0.7590;0.776
13.472000;-0.0333;-0.0965;0.7590;0.766
13.473000;0.0219;0.0596;0.7185;0.721
13.474000;0.1269;0.2009;0.5753;0.622
13.481000;0.2866;0.3643;0.5964;0.755
13.491000;0.4758;0.5120;0.7218;1.005
13.501000;0.6570;0.6092;0.9142;1.280
13.511000;0.7804;0.7263;1.1457;1.565
13.522000;0.8160;0.7889;1.2845;1.714
13.566000;0.8108;0.8154;1.4538;1.854
13.568000;0.7351;0.7818;1.6760;1.990
13.569000;0.6154;0.7278;1.9179;2.142
13.570000;0.5772;0.6774;1.9902;2.180
13.571000;0.7205;0.4401;2.1704;2.329
13.581000;0.9485;-0.0776;2.8628;3.017
13.591000;1.0024;-0.7616;4.1695;4.355
13.601000;0.7462;-1.5441;5.7359;5.987
13.617000;0.1526;-2.3190;7.0435;7.417
13.622000;-0.6890;-2.9862;6.3729;7.071
13.660000;-1.6154;-3.5246;6.3715;7.458
13.663000;-2.3383;-3.6077;4.2549;6.049
13.666000;-2.5423;-2.1758;-0.4298;3.374
13.667000;-2.0882;-1.0582;-2.4082;3.359
13.671000;-1.5616;0.2120;-3.6238;3.952
13.681000;-1.0952;1.3616;-4.0058;4.370
13.691000;-0.5175;1.9695;-3.5279;4.073
13.701000;0.0473;1.8667;-2.3969;3.038
13.718000;0.4384;1.2306;-1.0600;1.682
13.722000;0.5004;0.5684;-0.1386;0.770
13.757000;0.1649;-0.0358;0.4513;0.482
13.759000;-0.3464;-0.6035;0.7579;1.029
13.759000;-0.7937;-1.2211;0.8166;1.670
13.761000;-1.0696;-1.7344;0.8595;2.212
13.772000;-1.1679;-1.9110;0.7969;2.377
13.781000;-1.1539;-1.7862;0.4036;2.165
13.791000;-1.0043;-1.3332;-0.2467;1.687
13.801000;-0.7500;-0.7268;-0.9305;1.399
13.811000;-0.4321;-0.2049;-1.4298;1.508
13.821000;-0.0972;0.1937;-1.8444;1.857
13.854000;0.2303;0.5328;-2.4076;2.477
13.856000;0.5333;0.8923;-3.0180;3.192
13.857000;0.6774;1.2406;-3.5130;3.787
13.861000;0.7559;1.5060;-3.8105;4.166
13.871000;0.7683;1.6414;-3.9135;4.313
13.881000;0.7331;1.6248;-3.8654;4.257
13.891000;0.6497;1.4541;-3.6280;3.962
13.901000;0.4729;1.1911;-3.1806;3.429
13.918000;0.2536;0.8869;-2.5698;2.730
13.922000;0.0416;0.6065;-1.8932;1.988
13.956000;-0.0944;0.3966;-1.3578;1.418
13.957000;-0.1518;0.2294;-0.9155;0.956
13.958000;-0.1868;0.0965;-0.5351;0.575
13.961000;-0.1677;0.0275;-0.1593;0.233
13.971000;-0.1604;0.0005;0.2671;0.312
13.981000;-0.2452;0.0495;0.9692;1.001
13.991000;-0.3342;0.1614;1.1126;1.173
14.001000;-0.3991;0.3210;1.0399;1.159
14.011000;-0.3904;0.5181;0.7426;0.986
14.021000;-0.3181;0.7176;0.3092;0.844
14.059000;-0.2539;0.8964;-0.0497;0.933
14.061000;-0.1669;1.0370;-0.1834;1.066
14.062000;-0.0481;1.0979;-0.0887;1.103
14.063000;0.0663;1.0582;0.2460;1.088
14.071000;0.1293;0.9155;0.8828;1.278
14.081000;0.0647;0.5904;1.6371;1.741
14.090000;-0.0963;0.1660;2.3858;2.394
14.101000;-0.3952;-0.1920;2.9476;2.980
14.111000;-0.7853;-0.4439;3.1396;3.267
14.121000;-1.0648;-0.4182;2.9480;3.162
14.162000;-1.0552;-0.1351;2.4016;2.627
14.164000;-0.8016;0.2251;1.8820;2.058
14.165000;-0.4782;0.5520;1.6919;1.843
14.166000;-0.1276;0.7488;1.7061;1.868
14.171000;0.2540;0.8202;1.9174;2.101
14.181000;0.5921;0.5246;2.3664;2.495
14.191000;0.7324;-0.1592;3.2121;3.298
14.201000;0.5414;-0.9433;4.1318;4.273
14.211000;0.0294;-1.6698;4.6042;4.898
14.221000;-0.5913;-2.2560;4.5435;5.107
14.260000;-1.1613;-2.6122;3.7834;4.742
14.263000;-1.4523;-2.5188;2.6016;3.902
14.265000;-1.3907;-1.9199;1.4444;2.776
14.267000;-0.9968;-1.1755;0.4805;1.614
14.271000;-0.3543;-0.4767;-0.4056;0.719
14.282000;0.3707;0.2583;-1.2189;1.300
14.291000;1.1146;0.9015;-1.8210;2.318
14.301000;1.7958;1.2836;-2.0816;3.034
14.312000;2.6124;0.9492;-0.8279;2.900
14.325000;2.5323;0.5841;0.3457;2.622
14.379000;2.1153;0.1722;1.2303;2.453
14.380000;1.4757;-0.3722;1.3356;2.025
14.382000;0.7652;-0.9194;0.9460;1.525
14.383000;0.1183;-1.3134;0.3765;1.371
14.384000;-0.3567;-1.4113;-0.2427;1.476
14.385000;-0.5984;-1.1577;-0.8984;1.583
14.391000;-0.6157;-0.6768;-1.5714;1.818
14.401000;-0.4650;-0.1582;-2.1121;2.168
14.411000;-0.2427;0.2855;-2.5313;2.559
14.421000;0.0442;0.6718;-2.9451;3.021
14.468000;0.2520;0.9862;-3.3213;3.474
14.470000;0.3634;1.1920;-3.5585;3.770
14.471000;0.3630;1.2900;-3.5982;3.840
14.473000;0.3349;1.2230;-3.5042;3.727
14.475000;0.2675;1.0555;-3.3089;3.483
14.481000;0.1849;0.8276;-3.0555;3.171
14.490000;0.0766;0.5953;-2.7212;2.787
14.501000;0.0061;0.4254;-2.3321;2.371
14.512000;-0.0517;0.2897;-1.9443;1.966
14.523000;-0.1034;0.1819;-1.5624;1.576
14.566000;-0.1419;0.1627;-1.1742;1.194
14.567000;-0.1541;0.1276;-0.9398;0.961
14.568000;-0.1138;0.0484;-0.6728;0.684
14.569000;-0.0469;0.0087;-0.3386;0.342
14.572000;0.0068;0.0335;-0.0342;0.048
14.582000;0.0733;0.1441;0.1646;0.231
14.590000;0.1360;0.3023;0.2183;0.397
14.601000;0.1620;0.4656;0.2152;0.538
14.611000;0.2407;0.5664;0.2940;0.682
14.622000;0.3888;0.5575;0.5539;0.877
14.664000;0.5634;0.4549;0.9685;1.209
14.665000;0.8181;0.1906;2.2705;2.421
14.666000;0.7825;0.0354;3.1288;3.225
14.667000;0.5249;-0.1085;3.7248;3.763
14.671000;0.2233;-0.1229;3.8006;3.809
14.681000;-0.0408;0.0322;3.2359;3.236
14.691000;-0.2293;0.1962;2.3228;2.342
14.701000;-0.3017;0.3408;1.6319;1.694
14.711000;-0.2930;0.5022;1.2521;1.381
14.722000;-0.1474;0.6848;1.1520;1.348
14.773000;0.1478;0.6740;1.4722;1.626
14.774000;0.4289;0.2279;2.5521;2.598
14.776000;0.5709;-0.5055;4.0005;4.073
14.777000;0.2648;-1.1915;4.9940;5.141
14.780000;-0.4421;-1.9467;5.4087;5.765
14.783000;-1.3031;-2.4600;5.0748;5.788
14.791000;-2.0666;-2.6029;3.6711;4.952
14.802000;-2.4855;-2.3064;1.6326;3.763
14.811000;-2.4677;-1.6810;-0.1179;2.988
14.821000;-2.3646;-0.9312;-1.6251;3.017
14.863000;-1.9772;-0.1275;-2.7338;3.376
14.866000;-1.4338;0.6700;-2.9685;3.364
14.867000;-0.8076;1.2441;-2.5386;2.940
14.869000;-0.1342;1.4623;-1.7752;2.304
14.871000;0.4854;1.3718;-1.1225;1.838
14.881000;0.8572;1.1010;-0.7324;1.576
14.891000;0.8765;0.7775;-0.3804;1.232
14.901000;0.6225;0.3631;-0.2337;0.758
14.911000;0.2386;-0.1612;-0.4255;0.514
14.922000;-0.1006;-0.5864;-0.4889;0.770
14.956000;-0.3711;-0.9008;-0.5013;1.096
14.958000;-0.5318;-0.9975;-0.6959;1.327
14.958000;-0.5741;-0.7833;-1.0604;1.438
14.961000;-0.4555;-0.3895;-1.5446;1.657
14.971000;-0.2426;0.0244;-2.6216;2.633
14.982000;0.3374;0.6685;-3.0655;3.156
14.991000;0.5843;1.0143;-3.3006;3.502
15.001000;0.7232;1.3364;-3.4517;3.771
15.011000;0.8002;1.5744;-3.5180;3.936
15.022000;0.7934;1.6902;-3.4613;3.933
15.060000;0.7705;1.6693;-3.3130;3.789
15.062000;0.7508;1.5647;-3.0563;3.515
15.067000;0.6583;1.3965;-2.6708;3.085
15.068000;0.5533;1.2161;-2.0895;2.480
15.071000;0.4671;0.9951;-1.3878;1.770
15.083000;0.4452;0.7088;-0.7130;1.100
15.092000;0.4157;0.4651;-0.0521;0.626
15.102000;0.3063;0.2448;0.6983;0.801
15.111000;0.1444;0.0565;1.5056;1.514
15.122000;0.0185;-0.0436;2.2420;2.243
15.171000;-0.1177;-0.0797;2.7619;2.766
15.173000;-0.2200;-0.0753;3.0296;3.038
15.174000;-0.2131;-0.0864;3.1099;3.118
15.175000;-0.0953;-0.2548;3.1633;3.175
15.177000;0.0049;-0.5810;3.4635;3.512
15.183000;0.0184;-0.9696;4.0019;4.118
15.192000;-0.1235;-1.4102;4.4133;4.635
15.201000;-0.5534;-1.7970;4.3140;4.706
15.211000;-1.0262;-1.8365;3.5562;4.132
15.221000;-1.3092;-1.4391;2.3556;3.055
15.263000;-1.3547;-0.8347;1.1078;1.939
15.265000;-1.2785;-0.3242;0.1485;1.327
15.266000;-0.9727;0.3768;-0.4648;1.142
15.267000;-0.4363;1.0962;-0.7555;1.401
15.271000;0.3556;1.4142;-0.6047;1.579
15.283000;1.1083;0.9413;0.3575;1.497
15.291000;1.3930;-0.0892;1.7707;2.255
15.301000;1.1607;-0.9411;2.7564;3.135
15.311000;-0.4588;-2.3068;3.1446;3.927
15.321000;-1.1935;-2.5516;2.4736;3.749
15.372000;-1.5558;-2.3380;1.3478;3.115
15.374000;-1.6066;-1.7478;0.0520;2.375
15.375000;-1.3424;-0.9893;-0.8720;1.882
15.376000;-0.7194;-0.2706;-1.5038;1.689
15.377000;0.0894;0.3608;-1.7219;1.762
15.382000;0.9654;0.7143;-1.3193;1.784
15.391000;1.5537;0.6620;-0.4472;1.747
15.401000;1.7587;0.5114;0.6349;1.938
15.411000;1.8198;0.3784;1.6787;2.505
15.422000;1.5520;0.2001;1.9952;2.536
15.458000;0.9908;0.0551;1.3373;1.665
15.459000;0.4192;-0.0002;0.0023;0.419
15.460000;0.1429;0.0059;-1.1663;1.175
15.461000;0.0609;0.0389;-1.8480;1.849
15.471000;0.0452;0.1496;-2.2446;2.250
15.483000;0.1262;0.3277;-2.4484;2.473
15.491000;0.2513;0.5602;-2.5168;2.591
15.501000;0.3835;0.7726;-2.5469;2.689
15.510000;0.5200;0.8796;-2.5922;2.786
15.522000;0.5939;0.8922;-2.5893;2.802
15.568000;0.5808;0.7397;-2.5226;2.692
15.570000;0.4380;0.4780;-2.3918;2.478
15.571000;0.2583;0.1819;-2.2085;2.231
15.572000;0.0208;-0.0633;-2.0852;2.086
15.574000;-0.1903;-0.2566;-2.0317;2.057
15.583000;-0.2896;-0.3908;-1.9376;1.998
15.591000;-0.3097;-0.4542;-1.7803;1.863
15.601000;-0.2391;-0.4577;-1.5512;1.635
15.611000;-0.0963;-0.4621;-1.2060;1.295
15.622000;0.0550;-0.4404;-0.7854;0.902
15.667000;0.1642;-0.4172;-0.3503;0.569
15.669000;0.1810;-0.4405;0.1474;0.499
15.670000;0.1084;-0.4826;0.1725;0.524
15.670000;0.0105;-0.5367;0.1249;0.551
15.672000;-0.0750;-0.5514;0.0953;0.565
15.683000;-0.1055;-0.5392;0.1828;0.579
15.691000;-0.0539;-0.4961;0.4300;0.659
15.702000;0.0612;-0.4407;0.7544;0.876
15.711000;0.1172;-0.3799;1.0388;1.112
15.723000;0.0705;-0.2733;1.2543;1.286
15.760000;0.0292;-0.0497;1.3294;1.331
15.762000;0.0548;0.2298;1.2315;1.254
15.763000;0.3446;0.4321;1.1085;1.239
15.764000;0.9400;0.3737;1.4062;1.732
15.771000;1.6458;-0.0832;2.3176;2.844
15.784000;2.0095;-0.8154;3.9655;4.520
15.791000;1.7184;-1.5938;6.1256;6.559
15.802000;0.8585;-2.3805;7.7990;8.199
15.811000;-0.5212;-3.1168;8.1384;8.730
15.822000;-1.8201;-3.6900;6.7199;7.879
15.831000;-2.6118;-3.7294;4.1190;6.140
15.878000;-2.7820;-3.1635;1.2940;4.407
15.882000;-2.5942;-2.2683;-1.4055;3.722
15.885000;-2.1009;-1.2214;-3.2016;4.019
15.887000;-1.2897;-0.0433;-3.7830;3.997
15.888000;-0.2866;0.9780;-3.0068;3.175
15.891000;0.6086;1.5438;-1.4087;2.177
15.901000;1.1873;1.5473;0.1372;1.955
15.911000;1.4548;1.1723;1.0223;2.130
15.921000;1.3427;0.6510;1.2328;1.936
15.931000;0.8561;0.0604;0.8277;1.192
15.975000;0.2503;-0.5195;0.1264;0.590
15.976000;-0.2489;-1.0506;-0.2741;1.114
15.978000;-0.5867;-1.3514;-0.6265;1.601
15.979000;-0.8055;-1.1362;-0.8786;1.647
15.986000;-0.7233;-0.6965;-1.1660;1.539
15.991000;-0.4411;-0.2022;-1.4935;1.570
16.000000;-0.0465;0.2445;-1.9497;1.965
16.011000;0.3627;0.5747;-2.5021;2.593
16.021000;0.6733;0.9025;-3.1091;3.307
16.031000;0.8410;1.1756;-3.4907;3.778
16.062000;0.8882;1.3878;-3.6293;3.986
16.065000;0.8923;1.4895;-3.6099;4.006
16.067000;0.8915;1.5563;-3.4637;3.901
16.072000;0.8619;1.6197;-3.2040;3.692
16.083000;0.8605;1.6536;-2.9849;3.519
16.091000;0.8275;1.6034;-2.6473;3.204
16.103000;0.7285;1.4776;-2.0582;2.636
16.111000;0.5948;1.2478;-1.3210;1.912
16.121000;0.4298;0.9784;-0.5520;1.203
16.132000;0.2708;0.7092;0.1400;0.772
16.169000;0.1225;0.4290;0.6832;0.816
16.171000;-0.0453;0.2040;1.0899;1.110
16.171000;-0.2850;0.1068;1.3661;1.400
16.172000;-0.5325;0.1148;1.4583;1.557
16.181000;-0.7022;0.2323;1.3353;1.526
16.191000;-0.7539;0.3679;1.0080;1.311
16.209000;-0.7318;0.5428;0.7502;1.180
16.211000;-0.6675;0.7029;0.7935;1.253
16.257000;-0.5884;0.8417;1.0972;1.503
16.258000;-0.4741;0.8704;1.5762;1.862
16.259000;-0.4042;0.7011;2.1971;2.341
16.260000;-0.4940;0.3281;2.8513;2.912
16.262000;-0.7302;-0.0649;3.2278;3.310
16.271000;-1.0292;-0.3692;3.2729;3.451
16.282000;-1.2350;-0.4806;2.8946;3.184
16.291000;-1.3210;-0.3392;2.3633;2.729
16.306000;-1.1350;0.3814;1.7949;2.158
16.311000;-0.7545;0.5276;1.7101;1.942
16.355000;-0.2814;0.4140;1.8669;1.933
16.356000;0.0967;-0.1034;2.5371;2.541
16.357000;0.2535;-0.8398;3.5003;3.609
16.358000;0.2014;-1.3646;4.1833;4.405
16.360000;-0.1530;-1.8099;4.5026;4.855
16.371000;-0.5992;-2.1622;4.4321;4.968
16.381000;-0.9337;-2.2873;3.7025;4.451
16.391000;-0.9175;-2.0800;2.4923;3.373
16.407000;-0.5800;-1.5182;1.2087;2.025
16.411000;-0.0764;-0.9744;-0.0060;0.977
16.442000;0.5896;-0.3748;-1.1208;1.321
16.444000;1.3317;0.3174;-1.9841;2.411
16.445000;2.0305;0.9586;-2.3866;3.277
16.452000;2.6747;1.3940;-2.3913;3.849
16.461000;3.0950;1.4102;-1.8789;3.886
16.472000;3.1058;1.0695;-0.9034;3.407
16.482000;2.6517;0.5862;0.0999;2.718
16.491000;1.9760;-0.0050;0.6182;2.070
16.501000;1.1940;-0.6277;0.4464;1.421
16.511000;0.4484;-1.0735;-0.0609;1.165
16.523000;-0.1215;-1.3253;-0.6211;1.469
16.531000;-0.4003;-1.3229;-1.2368;1.855
16.576000;-0.4201;-1.0568;-1.9103;2.223
16.578000;-0.2007;-0.5577;-2.6097;2.676
16.579000;0.0802;-0.0473;-3.1041;3.106
16.580000;0.3741;0.4435;-3.3707;3.420
16.582000;0.6061;0.8881;-3.6191;3.775
16.591000;0.7276;1.2250;-3.7981;4.057
16.601000;0.7882;1.4009;-3.7606;4.090
16.611000;0.7986;1.3925;-3.5413;3.888
16.623000;0.7179;1.2566;-3.1882;3.501
16.631000;0.5492;1.0499;-2.3122;2.598
16.676000;-0.0473;0.5452;-1.7549;1.838
16.677000;-0.2754;0.1993;-1.3070;1.350
16.678000;-0.4688;-0.1011;-0.8066;0.938
16.679000;-0.6289;-0.3227;-0.0864;0.712
16.681000;-0.8440;-0.4425;0.7569;1.217
16.691000;-1.0690;-0.3593;1.5021;1.878
16.702000;-1.2105;-0.1321;1.8743;2.235
16.711000;-1.2278;0.0773;1.7315;2.124
16.724000;-1.0979;0.1889;1.3863;1.778
16.731000;-0.8281;0.2625;1.2069;1.487
16.772000;-0.5725;0.2495;1.0696;1.239
16.774000;-0.2357;0.3244;1.1582;1.226
16.775000;-0.0933;0.3953;1.4832;1.538
16.776000;-0.0014;0.4300;1.9646;2.011
16.781000;-0.0917;0.4118;2.3010;2.339
16.791000;-0.2864;0.4462;2.2139;2.276
16.803000;-0.4970;0.5812;1.6071;1.780
16.811000;-0.6332;0.6839;0.6992;1.165
16.822000;-0.5625;0.7687;0.0194;0.953
16.832000;-0.3674;0.8090;-0.0543;0.890
16.842000;-0.0799;0.8576;0.2522;0.898
16.886000;0.3228;0.6923;0.8652;1.154
16.888000;0.7720;0.0158;1.8455;2.001
16.889000;0.8157;-0.8902;3.1634;3.386
16.890000;0.1504;-1.7213;4.7825;5.085
16.892000;-0.8633;-2.4909;5.6501;6.235
16.901000;-1.9168;-3.0700;5.3331;6.445
16.911000;-2.4649;-3.2272;3.7550;5.531
16.921000;-2.5085;-2.7153;1.3929;3.950
16.931000;-2.4369;-1.8728;-0.7914;3.174
16.942000;-1.9277;-0.9461;-2.1901;3.067
16.982000;-1.1601;0.0312;-2.5254;2.779
16.984000;-0.2778;0.8417;-1.9234;2.118
16.985000;0.9358;1.1011;0.0641;1.446
16.986000;1.0556;0.7132;0.8151;1.512
16.991000;0.8043;0.2635;1.0560;1.353
17.002000;0.2056;-0.2713;0.6657;0.748
17.011000;-0.4455;-0.8021;-0.1819;0.935
17.021000;-0.8915;-1.1726;-0.8775;1.715
17.031000;-1.1264;-1.3161;-1.4766;2.276
17.041000;-1.2026;-1.2014;-1.9758;2.606
17.073000;-1.1604;-0.8045;-2.2649;2.669
17.075000;-0.9754;-0.2404;-2.4912;2.686
17.076000;-0.6981;0.3331;-2.6918;2.801
17.081000;-0.4480;0.7680;-2.9290;3.061
17.091000;-0.2622;1.0866;-3.2471;3.434
17.103000;-0.1139;1.2866;-3.6090;3.833
17.111000;-0.0558;1.3241;-3.8320;4.055
17.121000;-0.0185;1.2871;-3.8313;4.042
17.131000;-0.0098;1.1775;-3.6087;3.796
17.142000;-0.0227;0.9928;-3.0877;3.243
17.186000;-0.0445;0.7958;-2.3573;2.488
17.188000;-0.0873;0.6077;-1.5752;1.691
17.189000;-0.0965;0.4367;-0.9303;1.032
17.190000;-0.0856;0.2559;-0.3142;0.414
17.192000;-0.0579;0.0803;0.2937;0.310
17.202000;-0.0593;-0.0979;0.9262;0.933
17.211000;-0.0838;-0.2597;1.4050;1.431
17.221000;-0.1533;-0.3486;1.6512;1.695
17.231000;-0.3014;-0.3285;1.7257;1.782
17.242000;-0.4345;-0.1690;1.5005;1.571
17.288000;-0.5105;0.0400;1.0017;1.125
17.290000;-0.5044;0.2210;0.4733;0.726
17.291000;-0.3917;0.3700;0.1851;0.570
17.292000;-0.1955;0.5461;0.2061;0.616
17.292000;0.0830;0.7589;0.5182;0.923
17.301000;0.5865;0.5075;2.2357;2.366
17.311000;0.5571;-0.0379;3.2535;3.301
17.321000;0.3132;-0.6484;3.9489;4.014
17.331000;-0.1784;-1.1948;4.2843;4.451
17.341000;-0.7454;-1.5778;3.9776;4.343
17.391000;-1.1008;-1.6816;3.0193;3.627
17.393000;-1.0944;-1.3603;1.9947;2.651
17.393000;-0.8446;-0.7824;1.2889;1.728
17.394000;-0.4909;-0.1772;0.9231;1.060
17.395000;0.0600;0.4009;0.9651;1.047
17.404000;0.6900;0.7339;1.3021;1.646
17.411000;1.1621;0.5532;1.8681;2.269
17.421000;1.2833;-0.0419;2.4121;2.733
17.431000;0.9863;-0.6629;2.7367;2.984
17.442000;0.4555;-1.1230;2.7012;2.961
17.477000;-0.0031;-1.4512;2.5214;2.909
17.480000;-0.3607;-1.6458;2.0945;2.688
17.481000;-0.5302;-1.6043;1.2720;2.115
17.483000;-0.5053;-1.3442;0.3532;1.479
17.491000;-0.2248;-0.9354;-0.6202;1.145
17.503000;0.3089;-0.4652;-1.3662;1.476
17.511000;1.0394;0.0071;-1.7032;1.995
17.521000;1.6690;0.3815;-1.4487;2.243
17.531000;2.0261;0.5785;-0.6779;2.213
17.541000;2.0482;0.5673;0.1956;2.134
17.598000;1.7917;0.3852;0.6900;1.958
17.599000;1.3276;0.0609;0.6299;1.471
17.601000;0.8006;-0.2009;0.1158;0.833
17.602000;0.3793;-0.3375;-0.7086;0.872
17.603000;0.1394;-0.3357;-1.5131;1.556
17.604000;0.0989;-0.1797;-2.0740;2.084
17.611000;0.2188;0.1371;-2.4693;2.483
17.626000;0.3763;0.4877;-2.6763;2.746
17.631000;0.6658;1.1130;-3.2075;3.460
17.672000;0.7484;1.3192;-3.3472;3.675
17.674000;0.7843;1.4500;-3.3707;3.752
17.675000;0.7556;1.4749;-3.3584;3.745
17.676000;0.6169;1.3397;-3.2156;3.538
17.681000;0.4357;1.0660;-2.8971;3.118
17.691000;0.1794;0.7174;-2.4208;2.531
17.702000;-0.0630;0.3619;-1.8994;1.935
17.711000;-0.1963;0.1115;-1.3786;1.397
17.721000;-0.1754;-0.0648;-0.8354;0.856
17.731000;-0.0751;-0.1438;-0.2699;0.315
17.741000;0.0459;-0.1962;0.3707;0.422
17.793000;0.0653;-0.2795;1.0936;1.131
17.795000;-0.0125;-0.3827;1.8105;1.851
17.796000;-0.1676;-0.4774;2.2834;2.339
17.798000;-0.2869;-0.6093;2.3283;2.424
17.799000;-0.4114;-0.6814;2.3474;2.479
17.804000;-0.4745;-0.7380;2.1945;2.363
17.811000;-0.4758;-0.7659;2.0239;2.216
17.821000;-0.3902;-0.6998;1.9336;2.093
17.832000;-0.2730;-0.4737;1.9222;1.998
17.844000;-0.2062;-0.1635;1.8652;1.884
17.898000;-0.2152;0.1858;1.7197;1.743
17.900000;-0.2177;0.5032;1.3827;1.487
17.901000;-0.0916;0.7324;0.9940;1.238
17.902000;0.2610;0.8234;0.7168;1.123
17.903000;0.6275;0.6775;0.8751;1.272
17.904000;0.7986;0.2823;1.8406;2.026
17.911000;0.7116;-0.3060;3.1627;3.256
17.927000;0.3289;-0.9005;4.1217;4.232
17.931000;-0.3053;-1.6316;4.9187;5.191
17.977000;-1.1751;-2.3245;5.0792;5.708
17.979000;-2.0381;-2.7555;4.3202;5.515
17.981000;-2.7557;-2.1113;0.4765;3.504
17.983000;-2.5778;-1.3422;-1.3214;3.193
17.985000;-2.0666;-0.3872;-2.5409;3.298
17.991000;-1.3418;0.6558;-3.2791;3.603
18.003000;-0.4228;1.5785;-3.5575;3.915
18.011000;0.5115;2.2295;-3.3451;4.052
18.021000;1.2967;2.4355;-2.7465;3.893
18.031000;1.9419;2.1735;-1.8672;3.461
18.044000;2.3088;1.7244;-0.7154;2.969
18.051000;2.1470;1.2023;0.5815;2.529
18.085000;1.5439;0.4810;1.3137;2.083
18.086000;0.7199;-0.3472;1.5164;1.714
18.087000;-0.0370;-1.0446;1.2911;1.661
18.091000;-0.5951;-1.5750;0.5794;1.781
18.103000;-0.9864;-1.7695;-0.3148;2.050
18.111000;-1.1761;-1.5505;-1.1092;2.240
18.122000;-1.1040;-1.0592;-1.5264;2.161
18.131000;-0.7381;-0.4120;-1.8037;1.992
18.142000;-0.2252;0.2459;-2.0009;2.029
18.178000;0.2465;0.8883;-2.2728;2.453
18.180000;0.5294;1.4718;-2.7452;3.160
18.181000;0.7153;1.9006;-3.1360;3.736
18.183000;0.8796;2.1805;-3.3641;4.104
18.191000;1.0480;2.1824;-3.3691;4.149
18.204000;1.1006;1.9981;-3.0259;3.789
18.211000;0.9627;1.6896;-2.2171;2.949
18.221000;0.6924;1.3566;-1.1842;1.929
18.230000;0.3927;1.0120;-0.2343;1.110
18.241000;0.0829;0.6285;0.4488;0.777
18.251000;-0.2240;0.2824;1.1154;1.172
18.285000;-0.4202;0.0090;1.7583;1.808
18.287000;-0.4373;-0.1687;2.2029;2.252
18.287000;-0.2633;-0.2844;2.3773;2.409
18.291000;0.2325;-0.4269;2.7851;2.827
18.303000;0.3197;-0.6141;3.2612;3.334
18.311000;0.2866;-0.8895;3.9454;4.055
18.322000;-0.0091;-1.2042;4.3387;4.503
18.331000;-0.5213;-1.4242;3.9605;4.241
18.344000;-0.9265;-1.3264;2.7103;3.157
18.403000;-0.9662;-0.9494;1.2389;1.836
18.405000;-0.7783;-0.6261;0.4225;1.085
18.406000;-0.4764;-0.4757;0.3291;0.749
18.406000;-0.3258;-0.3136;0.7244;0.854
18.407000;-0.1585;-0.0976;1.2099;1.224
18.408000;0.0103;-0.0063;1.5059;1.506
18.411000;0.0702;-0.1964;1.5819;1.596
18.421000;-0.1289;-0.6501;1.5207;1.659
18.431000;-0.3773;-1.0269;1.2157;1.635
18.443000;-0.6698;-1.1715;0.6621;1.503
18.451000;-0.8602;-1.0283;-0.0421;1.341
18.482000;-0.9115;-0.7889;-0.9008;1.505
18.483000;-0.5926;-0.5724;-1.8805;2.053
18.485000;-0.0013;-0.3935;-2.4346;2.466
18.491000;0.6343;-0.2616;-2.3064;2.406
18.501000;1.0537;-0.3143;-1.3754;1.761
18.511000;1.0586;-0.4265;0.0353;1.142
18.526000;0.6317;-0.5567;1.2574;1.513
18.530000;-0.0128;-0.8061;1.6153;1.805
18.567000;-0.6980;-1.0851;1.0973;1.694
18.569000;-1.1548;-1.1721;-0.0239;1.646
18.571000;-1.2920;-1.0090;-1.4960;2.219
18.572000;-1.1856;-0.6002;-2.6133;2.932
18.581000;-0.9280;-0.0102;-3.0205;3.160
18.591000;-0.5931;0.6655;-3.0888;3.215
18.601000;-0.1949;1.2993;-3.1316;3.396
18.611000;0.2238;1.7853;-3.1753;3.650
18.625000;0.5325;2.0499;-3.0656;3.726
18.630000;0.6735;1.8348;-2.8816;3.482
18.665000;0.5657;1.5007;-2.4955;2.966
18.667000;0.3369;1.1153;-2.0258;2.337
18.669000;0.0243;0.6467;-1.4751;1.611
18.675000;-0.2899;0.1974;-0.9664;1.028
18.681000;-0.4607;-0.1316;-0.5764;0.749
18.691000;-0.5573;-0.2824;-0.2244;0.664
18.702000;-0.5331;-0.2211;0.1769;0.604
18.711000;-0.4182;-0.0095;0.5212;0.668
18.727000;-0.1962;0.2366;0.6779;0.744
18.731000;0.0566;0.4401;0.6808;0.813
18.767000;0.2529;0.5346;0.6627;0.888
18.769000;0.3969;0.4917;0.7261;0.963
18.770000;0.4418;0.3609;1.0552;1.200
18.777000;0.3965;0.2052;1.5061;1.571
18.782000;0.3235;0.0461;1.9913;2.018
18.791000;0.2461;-0.2249;2.2549;2.279
18.800000;0.1546;-0.4720;2.4539;2.504
18.811000;-0.0913;-0.4820;2.5971;2.643
18.826000;-0.3461;-0.2185;2.3231;2.359
18.831000;-0.4719;0.2277;1.5892;1.673
18.866000;-0.4859;0.7063;0.8696;1.221
18.867000;-0.3716;1.1275;0.4993;1.288
18.868000;0.0637;1.4959;0.4849;1.574
18.876000;0.7814;1.5700;0.8974;1.970
18.881000;1.5374;0.8947;2.0183;2.690
18.891000;1.8659;-0.1435;3.7555;4.196
18.901000;1.3719;-1.1718;6.3745;6.625
18.911000;0.4114;-2.2920;8.1452;8.472
18.928000;-0.7385;-3.2056;8.1977;8.833
18.931000;-1.7982;-3.7304;6.1969;7.453
18.968000;-2.3398;-3.4589;2.7769;5.015
18.970000;-2.4183;-2.4476;-2.6666;4.353
18.972000;-1.3329;0.2373;-4.5537;4.751
18.973000;-0.5738;1.4640;-5.4002;5.624
18.981000;0.1457;2.0367;-5.2277;5.612
18.990000;0.6753;1.7814;-3.8246;4.273
19.001000;1.1550;0.8668;-1.9083;2.393
19.011000;1.3659;0.1279;-0.2797;1.400
19.027000;0.8876;-0.4518;0.7798;1.265
19.031000;-0.0729;-1.1069;0.8194;1.379
19.070000;-0.9826;-1.7381;0.3845;2.033
19.072000;-1.5421;-2.1653;-0.1098;2.661
19.073000;-1.8455;-2.3441;-0.7983;3.088
19.075000;-1.9066;-2.1768;-1.3728;3.203
19.081000;-1.7629;-1.6744;-1.6491;2.938
19.090000;-1.3247;-1.0028;-1.8120;2.458
19.102000;-0.6975;-0.2445;-2.0109;2.142
19.112000;-0.0940;0.4509;-2.2913;2.337
19.128000;0.3285;1.0557;-2.7373;2.952
19.132000;0.5670;1.4807;-3.1168;3.497
19.170000;0.7727;1.7155;-3.2962;3.795
19.172000;0.9215;1.8151;-3.2924;3.871
19.174000;0.9247;1.7361;-3.1811;3.740
19.175000;0.7648;1.5303;-2.8977;3.365
19.181000;0.4899;1.2937;-2.4987;2.856
19.191000;0.2062;1.0825;-1.9570;2.246
19.201000;-0.0865;0.8322;-1.3725;1.607
19.211000;-0.3415;0.5952;-0.8634;1.103
19.228000;-0.4918;0.3628;-0.4381;0.752
19.231000;-0.5299;0.1650;0.0600;0.558
19.269000;-0.4467;0.0189;0.7359;0.861
19.270000;-0.2694;-0.1539;1.6038;1.634
19.272000;-0.0416;-0.3061;2.3565;2.377
19.272000;0.1571;-0.4409;2.9629;3.000
19.281000;0.3471;-0.6118;3.5656;3.634
19.291000;0.3667;-1.1536;4.8377;4.987
19.301000;0.0472;-1.4857;4.8592;5.081
19.311000;-0.3824;-1.6450;4.0325;4.372
19.326000;-0.6202;-1.4313;2.7192;3.135
19.331000;-0.5118;-0.9488;1.6560;1.976
19.367000;-0.0983;-0.5183;1.1689;1.282
19.369000;0.4481;-0.2792;1.3424;1.443
19.370000;0.8779;-0.4317;2.3622;2.557
19.372000;0.8886;-0.9760;3.8872;4.105
19.382000;0.3340;-1.5619;4.8316;5.089
19.391000;-0.4849;-1.9803;4.4077;4.856
19.400000;-1.1150;-2.1208;3.2673;4.052
19.411000;-1.4360;-1.9506;1.7253;2.974
19.430000;-1.5276;-1.5566;0.2408;2.194
19.433000;-1.3387;-1.0522;-0.9231;1.937
19.473000;-0.7856;-0.4115;-2.1503;2.326
19.475000;0.1143;0.2781;-3.3884;3.402
19.476000;1.1691;0.9175;-3.8231;4.102
19.477000;2.1709;1.2338;-3.2564;4.104
19.481000;2.9041;1.1749;-1.7333;3.580
19.491000;3.1023;0.8789;0.2656;3.235
19.500000;2.6200;0.5240;2.0184;3.349
19.511000;1.6590;-0.0289;2.6049;3.088
19.530000;0.5584;-0.6394;2.1348;2.297
19.533000;-0.2989;-1.0583;1.1071;1.560
19.572000;-0.8230;-1.2353;-0.1301;1.490
19.574000;-0.9983;-1.1051;-1.3029;1.979
19.575000;-0.8364;-0.6278;-2.2451;2.477
19.576000;-0.4318;0.0965;-2.6790;2.715
19.581000;0.0611;0.7953;-2.7948;2.906
19.591000;0.4755;1.2922;-2.9937;3.295
19.600000;0.8301;1.6113;-3.2136;3.689
19.612000;1.0481;1.8068;-3.4680;4.048
19.628000;1.0558;1.7989;-3.5741;4.138
19.632000;0.8915;1.5388;-3.5072;3.932
19.684000;0.7394;1.2347;-3.1991;3.508
19.688000;0.6503;0.9902;-2.7385;2.984
19.690000;0.5487;0.7117;-2.2237;2.398
19.693000;0.4301;0.4776;-1.5312;1.661
19.694000;0.3227;0.3258;-0.9027;1.012
19.694000;0.3081;0.2847;-0.3415;0.541
19.702000;0.3344;0.2883;0.2161;0.492
19.711000;0.4216;0.3591;0.7271;0.914
19.756000;0.5350;0.3903;1.1581;1.334
19.758000;0.6727;0.3604;1.5913;1.765
19.759000;0.7585;0.2600;2.0290;2.182
19.760000;0.7686;0.0871;2.5728;2.687
19.761000;0.6423;-0.1801;3.2499;3.318
19.773000;0.3629;-0.5157;4.0185;4.068
19.781000;0.1153;-0.9407;4.5976;4.694
19.791000;-0.2560;-1.1890;4.8237;4.975
19.800000;-0.6717;-1.0409;4.2283;4.406
19.811000;-0.9247;-0.5248;3.0108;3.193
19.828000;-0.8464;0.1082;1.8618;2.048
19.832000;-0.4368;0.5367;1.0799;1.283
19.891000;0.1818;0.7947;0.7598;1.114
19.892000;0.8166;0.8144;1.1657;1.640
19.894000;1.0900;0.4301;2.5056;2.766
19.894000;0.8600;-0.3519;4.1566;4.259
19.895000;0.1850;-1.2026;5.3025;5.440
19.896000;-0.9969;-2.1024;5.4554;5.931
19.901000;-2.0526;-2.8677;4.5010;5.718
19.911000;-2.6658;-3.0449;2.6839;4.856
19.928000;-2.9207;-2.6199;0.3938;3.943
19.932000;-2.8233;-1.8093;-1.7005;3.760
19.977000;-2.4139;-0.7636;-3.2406;4.112
19.980000;-0.6275;1.4761;-4.2209;4.515
19.981000;0.5590;2.2237;-3.7917;4.431
19.983000;1.5508;2.4331;-3.1087;4.241
19.984000;2.2338;2.1311;-2.2637;3.828
19.991000;2.4549;1.6507;-1.2263;3.202
20.000000;2.0986;1.1002;-0.2173;2.379
20.011000;1.2853;0.3603;0.0115;1.335
20.028000;0.4700;-0.3722;-0.2257;0.641
20.031000;-0.1501;-0.9134;-0.6375;1.124
20.085000;-0.6232;-1.3280;-0.9832;1.766
20.088000;-1.0141;-1.5694;-1.2519;2.249
20.090000;-1.2798;-1.5111;-1.5094;2.490
20.092000;-1.2380;-1.0882;-1.8945;2.511
20.093000;-0.8724;-0.4391;-2.3366;2.533
20.095000;-0.3535;0.3085;-2.5763;2.619
20.101000;0.0872;0.9769;-2.7624;2.931
20.111000;0.4198;1.4649;-3.0711;3.428
20.127000;0.6966;1.8043;-3.2417;3.775
20.131000;0.9602;1.9194;-3.2385;3.885
20.164000;1.1193;1.9359;-3.0191;3.757
20.166000;1.1325;1.8202;-2.4593;3.263
20.168000;0.9693;1.5744;-1.5369;2.404
20.175000;0.7323;1.1652;-0.6963;1.542
20.182000;0.4591;0.7166;-0.0004;0.851
20.191000;0.1813;0.4042;0.7604;0.880
20.201000;-0.0818;0.1280;1.4898;1.498
20.211000;-0.2750;-0.1511;2.1464;2.169
20.221000;-0.3053;-0.3693;2.7507;2.792
20.231000;-0.1903;-0.5840;3.2800;3.337
20.283000;-0.0749;-0.7662;3.8350;3.912
20.285000;0.0306;-0.9870;4.2363;4.350
20.286000;0.0110;-1.2988;4.3941;4.582
20.288000;-0.2396;-1.6352;4.4114;4.711
20.291000;-1.1100;-1.7297;3.1488;3.760
20.292000;-1.1995;-1.2673;2.1317;2.755
20.301000;-0.9520;-0.7387;1.5602;1.971
20.311000;-0.4216;-0.3541;1.3486;1.457
20.321000;0.1929;-0.0300;1.5154;1.528
20.331000;0.7736;0.1343;1.8206;1.983
20.366000;1.1582;-0.0671;2.4114;2.676
20.367000;1.1072;-0.6748;3.0617;3.325
20.369000;0.5406;-1.4474;3.2852;3.630
20.371000;-0.2583;-1.8992;3.1764;3.710
20.381000;-0.9690;-2.0061;2.4640;3.322
20.391000;-1.3875;-1.9041;1.2275;2.657
20.401000;-1.4297;-1.6722;0.0438;2.201
20.411000;-1.1559;-1.4074;-1.0254;2.090
20.421000;-0.5769;-0.9850;-1.7341;2.076
20.431000;0.1442;-0.3926;-2.2349;2.274
20.470000;0.8697;0.1471;-2.2601;2.426
20.472000;1.3020;0.4086;-1.5181;2.041
20.474000;1.3313;0.4505;-0.2712;1.431
20.474000;1.0594;0.4161;0.7558;1.366
20.480000;0.5609;0.2788;0.8373;1.046
20.490000;0.0375;0.1143;0.1107;0.163
20.500000;-0.3279;-0.0464;-0.9988;1.052
20.511000;-0.4920;-0.0973;-1.9034;1.968
20.522000;-0.4716;0.0663;-2.3552;2.403
20.531000;-0.2975;0.3056;-2.5465;2.582
20.570000;-0.0696;0.5669;-2.6259;2.687
20.572000;0.2517;0.7982;-2.6607;2.789
20.574000;0.4944;0.9814;-2.7923;3.001
20.575000;0.6580;1.1042;-2.8749;3.149
20.581000;0.7793;1.1268;-2.8727;3.183
20.591000;0.7286;1.0220;-2.8683;3.131
20.601000;0.6137;0.7759;-2.6656;2.843
20.611000;0.5089;0.4845;-1.7198;1.858
20.621000;0.3333;0.0442;-1.1645;1.212
20.632000;0.2353;-0.0932;-0.6858;0.731
20.670000;0.1574;-0.1892;-0.3615;0.437
20.671000;0.1531;-0.2283;-0.2319;0.360
20.672000;0.2287;-0.2101;-0.1463;0.343
20.673000;0.2908;-0.1835;0.2304;0.414
20.682000;0.4378;-0.1444;0.7216;0.856
20.691000;0.5500;-0.2311;1.0627;1.219
20.701000;0.5952;-0.3662;1.4582;1.617
20.711000;0.4846;-0.5853;1.9762;2.117
20.721000;0.2846;-0.8650;2.2637;2.440
20.732000;-0.0148;-1.0584;2.5676;2.777
20.780000;-0.4501;-1.0968;2.7518;2.996
20.783000;-0.9217;-1.0615;2.6037;2.959
20.785000;-1.2661;-1.0008;2.2434;2.764
20.787000;-1.2981;-0.8183;1.6592;2.260
20.788000;-1.0070;-0.6100;0.9622;1.521
20.791000;-0.5939;-0.4501;0.9957;1.244
20.801000;-0.2372;-0.4630;1.7810;1.855
20.811000;0.0708;-0.7519;2.7787;2.880
20.822000;-0.0253;-1.3514;3.6551;3.897
20.832000;-0.7133;-1.9759;4.3789;4.857
20.871000;-1.6780;-2.5845;4.9686;5.847
20.874000;-2.4221;-3.0974;4.3854;5.890
20.876000;-2.7164;-3.1703;2.8468;5.053
20.878000;-2.6824;-2.6036;0.9580;3.859
20.881000;-2.2842;-1.6930;-0.5949;2.905
20.892000;-1.4855;-0.7038;-1.7189;2.378
20.901000;-0.4151;0.3201;-2.3024;2.361
20.912000;0.7123;1.1321;-2.1154;2.503
20.920000;1.5913;1.4740;-1.3612;2.561
20.931000;1.9972;1.3461;-0.2410;2.420
20.964000;1.8838;1.0199;0.8003;2.287
20.965000;0.4787;-0.2101;0.4713;0.704
20.966000;-0.2451;-0.7917;-0.3551;0.902
20.971000;-0.6932;-1.1185;-1.0591;1.689
20.981000;-0.9557;-1.1864;-1.6806;2.268
20.991000;-1.0583;-1.0463;-2.2137;2.667
21.000000;-0.9767;-0.6804;-2.5330;2.799
21.010000;-0.6484;-0.0972;-2.6303;2.711
21.021000;-0.2049;0.5472;-2.6674;2.731
21.031000;0.1726;1.0934;-2.7668;2.980
21.064000;0.4366;1.4551;-2.9320;3.302
21.066000;0.5736;1.7059;-3.1107;3.594
21.067000;0.6130;1.7399;-3.1759;3.673
21.070000;0.6560;1.6162;-3.1220;3.576
21.081000;0.6272;1.4143;-2.9154;3.300
21.091000;0.5304;1.2247;-2.4244;2.768
21.100000;0.3851;1.0286;-1.8801;2.177
21.111000;0.2525;0.8475;-1.3635;1.625
21.120000;0.1599;0.6775;-0.8948;1.134
21.131000;0.0860;0.4977;-0.5038;0.713
21.171000;0.0297;0.3822;-0.1173;0.401
21.172000;-0.0391;0.3467;0.2276;0.417
21.174000;-0.1129;0.3470;0.5790;0.684
21.175000;-0.2258;0.3454;0.7775;0.880
21.181000;-0.2469;0.3688;0.8093;0.923
21.191000;-0.2584;0.4640;0.7237;0.898
21.201000;-0.2432;0.5663;0.6056;0.864
21.211000;-0.0917;0.6122;0.6351;0.887
21.222000;0.1541;0.5076;0.9616;1.098
21.232000;0.3480;0.1795;1.6507;1.696
21.271000;0.4713;-0.2174;2.6130;2.664
21.274000;0.2503;-0.6221;3.5619;3.624
21.276000;-0.1711;-1.0548;4.3226;4.453
21.278000;-0.9535;-1.5344;3.4646;3.907
21.282000;-0.9481;-1.2915;2.2200;2.738
21.292000;-0.7129;-0.8333;1.5925;1.934
21.301000;-0.3495;-0.4071;1.6139;1.701
21.311000;0.0666;-0.2107;2.1760;2.187
21.321000;0.4239;-0.3101;2.9424;2.989
21.331000;0.4597;-0.6753;3.4561;3.551
21.392000;0.1669;-0.9961;3.3976;3.545
21.394000;-0.2266;-1.1630;2.7292;2.975
21.395000;-0.4585;-1.0891;1.9297;2.263
21.396000;-0.5034;-0.8841;1.1225;1.515
21.398000;-0.3177;-0.6586;0.1649;0.750
21.399000;0.1656;-0.3825;-0.8426;0.940
21.401000;0.7912;0.1127;-1.5209;1.718
21.411000;1.6445;0.5277;-1.7285;2.443
21.421000;2.4106;0.7647;-1.3725;2.877
21.432000;2.9600;0.7871;-0.3301;3.081
21.482000;2.9398;0.6225;0.9799;3.161
21.484000;2.4441;0.2222;1.9195;3.116
21.485000;1.6122;-0.3647;2.1462;2.709
21.486000;0.6750;-0.8569;1.6869;2.009
21.486000;-0.1289;-1.0875;0.7215;1.311
21.491000;-0.5343;-1.1335;-0.5240;1.358
21.501000;-0.5907;-0.8958;-1.6296;1.951
21.511000;-0.3619;-0.3911;-2.3708;2.430
21.521000;-0.0448;0.1935;-3.0536;3.060
21.532000;0.3721;0.7744;-3.5980;3.699
21.569000;0.7522;1.3172;-4.0679;4.342
21.571000;0.9866;1.7445;-4.3225;4.765
21.574000;1.1390;1.9825;-4.3705;4.932
21.576000;1.2064;2.0486;-4.3055;4.918
21.581000;1.0825;1.9738;-4.0340;4.620
21.593000;0.8198;1.8099;-3.6850;4.187
21.601000;0.5225;1.5615;-3.3673;3.748
21.611000;0.1088;0.8898;-2.2634;2.434
21.621000;0.0077;0.5353;-1.4951;1.588
21.632000;-0.1207;0.2640;-0.6652;0.726
21.690000;-0.3248;0.0570;0.4062;0.523
21.692000;-0.6006;-0.1752;1.4856;1.612
21.694000;-0.7873;-0.3145;2.1631;2.323
21.695000;-0.8958;-0.3254;2.2082;2.405
21.696000;-0.8842;-0.1945;1.7851;2.002
21.697000;-0.6949;-0.0197;1.3340;1.504
21.701000;-0.3926;0.0734;1.2553;1.317
21.711000;-0.0687;0.0695;1.5935;1.597
21.720000;0.1319;0.0324;2.2131;2.217
21.731000;0.1956;0.0509;2.8829;2.890
21.770000;0.0412;0.0388;3.4635;3.464
21.771000;-0.1461;0.1220;3.7840;3.789
21.772000;-0.2936;0.3565;3.5301;3.560
21.776000;-0.2612;0.5552;2.9236;2.987
21.780000;-0.0017;0.4961;2.5233;2.572
21.792000;0.3272;0.1634;2.8145;2.838
21.800000;0.4587;-0.3883;3.8470;3.894
21.810000;0.2822;-0.8268;4.8857;4.963
21.820000;-0.3639;-1.5079;5.6188;5.829
21.832000;-1.3963;-2.2367;5.8055;6.376
21.878000;-2.3818;-2.7892;5.0301;6.225
21.880000;-2.9333;-2.9557;3.2316;5.271
21.882000;-3.1216;-2.4749;0.7850;4.060
21.884000;-3.0764;-1.6264;-1.4581;3.773
21.885000;-2.7942;-0.5517;-3.1220;4.226
21.892000;-2.2818;0.5835;-4.4049;4.995
21.901000;-1.4492;1.5777;-4.9895;5.430
21.911000;-0.3964;2.2726;-4.8152;5.339
21.921000;0.7421;2.4867;-4.0081;4.775
21.931000;1.6935;2.1628;-2.8702;3.973
21.968000;2.0108;1.1119;0.1099;2.300
21.969000;1.2865;0.3907;0.9785;1.663
21.970000;0.4205;-0.4735;1.0541;1.230
21.971000;-0.2544;-1.1587;0.5549;1.310
21.981000;-0.6321;-1.6257;-0.5071;1.816
21.992000;-0.8815;-1.8663;-1.4635;2.530
22.001000;-1.0645;-1.8133;-1.8780;2.819
22.011000;-1.0022;-1.4556;-1.8328;2.546
22.021000;-0.6621;-0.8876;-1.7554;2.075
22.031000;-0.2030;-0.1962;-1.9389;1.959
22.077000;0.1564;0.4273;-2.4086;2.451
22.079000;0.4096;0.9164;-2.9252;3.093
22.081000;0.6180;1.3392;-3.5130;3.810
22.082000;0.7798;1.5838;-4.0132;4.384
22.083000;0.9360;1.7485;-4.2296;4.672
22.093000;0.9505;1.8827;-4.0993;4.610
22.101000;0.8073;1.8715;-3.6105;4.146
22.111000;0.5680;1.7363;-2.7359;3.290
22.121000;0.4064;1.5024;-1.7669;2.355
22.132000;0.4144;1.2456;-0.9128;1.599
22.177000;0.5164;0.9646;-0.1319;1.102
22.178000;0.5803;0.6771;0.9266;1.286
22.179000;0.6025;0.3645;2.1804;2.291
22.179000;0.5922;-0.0566;3.4524;3.503
22.181000;0.7095;-0.5693;4.3454;4.440
22.193000;0.6871;-1.1022;5.0453;5.210
22.201000;0.3608;-1.6700;5.4960;5.755
22.211000;-0.2639;-2.2031;5.4483;5.883
22.221000;-0.9133;-2.4674;4.7860;5.461
22.231000;-1.2667;-2.2491;3.4358;4.297
22.269000;-1.1912;-1.6502;2.1769;2.980
22.270000;-0.8023;-0.9954;1.3867;1.886
22.272000;-0.1250;-0.4848;0.9765;1.097
22.272000;0.6661;-0.0825;2.3368;2.431
22.281000;1.2775;-0.5463;3.6814;3.935
22.291000;1.2874;-1.2155;4.4857;4.822
22.301000;-0.0571;-1.8070;4.5101;4.859
22.310000;-0.7484;-2.1595;3.8022;4.436
22.321000;-1.1885;-2.2078;2.3814;3.458
22.332000;-1.2786;-1.8865;0.8475;2.431
22.377000;-1.0502;-1.3455;-0.5402;1.790
22.379000;-0.4085;-0.6901;-1.7274;1.904
22.380000;0.5131;0.1315;-2.6934;2.745
22.381000;1.5865;0.9576;-3.0596;3.577
22.383000;2.7570;1.4978;-2.6286;4.093
22.393000;3.4488;1.5864;-1.4527;4.065
22.402000;3.4153;1.3194;0.2048;3.667
22.411000;2.7792;0.8917;1.3679;3.223
22.421000;1.9064;0.2896;1.6167;2.516
22.435000;0.9502;-0.2431;1.0871;1.464
22.442000;0.1133;-0.5901;0.1223;0.613
22.478000;-0.3727;-0.7052;-0.9160;1.215
22.480000;-0.4845;-0.5969;-1.7806;1.939
22.482000;-0.3341;-0.2906;-2.3124;2.354
22.483000;-0.0714;0.1578;-2.6265;2.632
22.491000;0.2748;0.6368;-2.8811;2.963
22.501000;0.6139;1.0526;-3.1661;3.392
22.511000;0.8839;1.3628;-3.4173;3.784
22.521000;1.0082;1.5465;-3.5358;3.989
22.531000;0.9956;1.5887;-3.5446;4.010
22.547000;0.8707;1.5424;-3.4711;3.897
22.552000;0.6569;1.3991;-3.3774;3.714
22.612000;0.4418;1.1986;-3.1976;3.443
22.614000;0.2880;0.9333;-2.8589;3.021
22.615000;0.1398;0.6584;-2.2823;2.380
22.616000;0.0513;0.3952;-1.6213;1.670
22.617000;-0.0837;0.2277;-0.1205;0.271
22.618000;-0.2414;0.1080;0.6975;0.746
22.621000;-0.2483;0.0282;1.3321;1.355
22.631000;-0.2445;-0.0693;1.7431;1.762
22.648000;-0.2678;-0.1138;1.8935;1.916
22.651000;-0.2764;-0.1540;1.7668;1.795
22.691000;-0.2745;-0.1878;1.6345;1.668
22.694000;-0.3332;-0.2116;1.8148;1.857
22.694000;-0.3920;-0.2498;2.1539;2.203
22.695000;-0.4252;-0.2956;2.5201;2.573
22.701000;-0.4539;-0.3442;2.8167;2.874
22.712000;-0.5667;-0.4126;2.9431;3.025
22.721000;-0.6990;-0.3870;2.8949;3.003
22.731000;-0.7816;-0.2945;2.7679;2.891
22.741000;-0.7364;-0.2007;2.5355;2.648
22.751000;-0.4560;-0.1935;2.4022;2.453
22.800000;-0.0081;-0.2880;2.6739;2.689
22.802000;0.2849;-0.6031;3.5943;3.656
22.803000;0.0840;-1.0570;4.7415;4.859
22.804000;-0.3798;-1.6942;5.8383;6.091
22.806000;-1.1255;-2.3936;6.4391;6.961
22.811000;-1.9695;-2.9204;5.9138;6.883
22.821000;-2.5150;-3.1228;4.3228;5.896
22.831000;-2.7510;-2.7698;2.3619;4.563
22.841000;-2.6358;-2.1137;0.6198;3.435
22.851000;-2.3161;-1.4268;-0.9616;2.885
22.894000;-1.7175;-0.6256;-1.9954;2.706
22.897000;-1.0329;0.2005;-2.5446;2.754
22.900000;-0.3240;0.8620;-2.5367;2.699
22.902000;0.3849;1.2117;-2.1744;2.519
22.903000;0.8720;1.2090;-1.5665;2.162
22.912000;1.0465;0.9808;-0.9493;1.720
22.921000;0.7804;0.6873;-0.3876;1.110
22.932000;0.1986;0.2371;-0.2422;0.393
22.940000;-0.6000;-0.6759;-0.6825;1.133
22.951000;-0.8369;-0.8331;-1.0978;1.612
22.985000;-0.9857;-0.9257;-1.5971;2.093
22.986000;-1.1185;-0.9778;-1.7184;2.272
22.988000;-1.1485;-0.8305;-1.6618;2.184
22.991000;-1.0368;-0.5242;-1.7875;2.132
23.001000;-0.8305;-0.1921;-2.1276;2.292
23.011000;-0.6851;0.1185;-2.4799;2.575
23.021000;-0.5269;0.3458;-2.8588;2.927
23.031000;-0.3539;0.4897;-3.2553;3.311
23.042000;-0.2336;0.6851;-3.6850;3.755
23.051000;-0.1631;0.8250;-3.9146;4.004
23.091000;-0.0560;0.8956;-3.8821;3.985
23.093000;0.0488;0.9382;-3.4958;3.620
23.095000;0.1377;0.9357;-2.9807;3.127
23.096000;0.1500;0.8431;-2.3906;2.539
23.101000;0.1247;0.6983;-1.8358;1.968
23.113000;0.0604;0.5425;-1.2145;1.331
23.121000;0.0398;0.4536;-0.6976;0.833
23.132000;0.0090;0.3900;-0.3139;0.501
23.141000;-0.0260;0.3005;0.0135;0.302
23.151000;0.0143;0.2119;0.3239;0.387
23.202000;0.0495;0.1913;0.7296;0.756
23.204000;0.1492;0.1650;1.1378;1.159
23.204000;0.1551;0.0842;1.5763;1.586
23.205000;0.1990;-0.0378;2.1865;2.196
23.206000;0.2497;-0.2336;2.9494;2.969
23.214000;0.2643;-0.5172;3.6691;3.715
23.221000;0.2018;-0.8626;4.1545;4.248
23.231000;-0.0352;-1.1479;4.0528;4.212
23.241000;-0.3429;-1.2459;3.2944;3.539
23.252000;-0.4435;-1.1990;2.4499;2.763
23.293000;-0.3244;-1.0564;2.1747;2.439
23.295000;-0.1073;-0.8684;3.0867;3.208
23.296000;-0.0072;-0.8234;3.8397;3.927
23.297000;0.0486;-1.0109;4.3488;4.465
23.301000;0.0267;-1.3808;4.3845;4.597
23.311000;-0.0900;-1.7019;4.0414;4.386
23.321000;-0.2101;-1.7561;3.3745;3.810
23.331000;-0.1998;-1.5175;2.5431;2.968
23.340000;0.0443;-1.1142;1.5531;1.912
23.351000;0.5816;-0.7381;0.3744;1.012
23.398000;1.2771;-0.3876;-0.6092;1.467
23.399000;1.9522;0.0904;-0.8942;2.149
23.400000;2.4733;0.5143;-0.5942;2.595
23.401000;2.7440;0.7338;0.1317;2.843
23.402000;2.6493;0.7211;0.9017;2.890
23.411000;2.2136;0.4723;1.4199;2.672
23.421000;1.5970;0.0679;1.4080;2.130
23.431000;1.0510;-0.3615;0.8810;1.418
23.441000;0.6747;-0.5915;0.2688;0.937
23.451000;0.3825;-0.5717;-0.5484;0.880
23.496000;0.2507;-0.4141;-1.3780;1.461
23.498000;0.2555;-0.2285;-1.9314;1.962
23.499000;0.3772;0.0403;-2.1779;2.211
23.500000;0.5498;0.3504;-2.4515;2.537
23.502000;0.7105;0.6704;-2.8868;3.048
23.512000;0.8422;0.9058;-3.4185;3.635
23.522000;0.9028;1.1125;-3.8289;4.088
23.532000;0.9684;1.2896;-4.2329;4.530
23.541000;0.9835;1.4449;-4.6005;4.921
23.551000;0.9362;1.5344;-4.8217;5.146
23.599000;0.9051;1.4971;-4.9767;5.275
23.601000;0.8329;1.4461;-4.9231;5.198
23.602000;0.7083;1.3498;-4.7485;4.987
23.604000;0.5032;1.1753;-4.4985;4.677
23.605000;0.1572;0.6791;-3.6671;3.733
23.611000;0.1074;0.4146;-3.0975;3.127
23.621000;0.0689;0.2455;-2.4382;2.452
23.634000;-0.0226;0.1452;-1.7240;1.730
23.641000;-0.1516;0.0266;-1.0267;1.038
23.679000;-0.2402;-0.0871;-0.4012;0.476
23.681000;-0.2710;-0.1411;0.2893;0.421
23.682000;-0.2875;-0.1923;0.9646;1.025
23.684000;-0.2779;-0.3022;1.5580;1.611
23.691000;-0.2787;-0.4274;2.0747;2.137
23.701000;-0.3236;-0.5225;2.5467;2.620
23.712000;-0.4497;-0.5562;3.0007;3.085
23.721000;-0.6476;-0.5573;3.4437;3.548
23.732000;-0.9658;-0.5281;3.8306;3.986
23.741000;-1.2765;-0.4112;3.9915;4.211
23.785000;-1.3130;-0.2368;3.6180;3.856
23.787000;-1.0951;-0.1043;3.0990;3.288
23.787000;-0.6794;0.0068;3.0674;3.142
23.789000;-0.1933;-0.0383;3.3465;3.352
23.791000;0.2648;-0.3307;4.0963;4.118
23.801000;0.4645;-0.7057;5.4231;5.489
23.811000;0.2649;-1.2725;6.9802;7.100
23.820000;-0.4386;-2.0000;8.1089;8.363
23.832000;-1.6281;-2.5963;7.9983;8.565
23.841000;-2.5492;-2.8840;6.1971;7.295
23.877000;-2.9577;-2.5936;3.5819;5.320
23.879000;-2.9308;-1.9987;1.1944;3.743
23.881000;-2.6079;-1.2594;-0.6161;2.961
23.882000;-2.0319;-0.3694;-1.8154;2.750
23.891000;-1.3349;0.4904;-2.3788;2.771
23.901000;-0.6044;1.2078;-2.2123;2.592
23.912000;0.0022;1.6124;-1.6395;2.299
23.920000;0.3630;1.5861;-1.0612;1.943
23.930000;0.4434;1.2470;-0.3883;1.379
23.941000;-0.2791;0.0534;-0.5686;0.636
23.952000;-0.6505;-0.5470;-0.7394;1.126
24.010000;-0.8774;-0.8760;-0.8320;1.493
24.012000;-0.9655;-1.0125;-1.1634;1.820
24.013000;-0.9615;-1.0972;-1.4757;2.075
24.014000;-0.8567;-1.1195;-1.5368;2.085
24.015000;-0.6423;-0.9091;-1.5529;1.911
24.017000;-0.3997;-0.5770;-1.6927;1.832
24.021000;-0.1523;-0.2464;-2.1165;2.136
24.031000;0.0412;0.0462;-2.6640;2.665
24.041000;0.1547;0.2740;-3.0572;3.073
24.054000;0.1809;0.4538;-3.2939;3.330
24.102000;0.1668;0.5788;-3.5741;3.624
24.103000;0.1492;0.7161;-3.9158;3.984
24.105000;0.1130;0.8716;-4.2160;4.307
24.106000;0.0115;1.0105;-4.3767;4.492
24.108000;-0.1371;1.1234;-4.4446;4.586
24.112000;-0.2365;1.1765;-4.2438;4.410
24.122000;-0.2915;1.1102;-3.6960;3.870
24.131000;-0.2365;1.0562;-2.9467;3.139
24.141000;-0.2060;1.0129;-2.2103;2.440
24.151000;-0.1629;1.0547;-1.6400;1.957
24.212000;-0.1044;1.1260;-1.0399;1.536
24.214000;-0.1081;1.0811;-0.5185;1.204
24.215000;-0.0335;0.9351;0.0685;0.938
24.216000;0.0388;0.6846;0.7113;0.988
24.216000;0.1936;0.4106;1.4600;1.529
24.217000;0.3616;0.0232;2.3709;2.398
24.221000;0.4982;-0.5563;3.4745;3.554
24.231000;0.4234;-1.2325;4.8616;5.033
24.241000;-0.0190;-1.8243;5.8810;6.157
24.252000;-0.6181;-2.2177;5.8880;6.322
24.295000;-0.7899;-2.1883;3.4114;4.129
24.298000;0.2424;-1.2411;2.9224;3.184
24.299000;0.8122;-1.0388;3.2715;3.527
24.300000;1.0945;-0.9895;3.9832;4.248
24.302000;0.9891;-1.0755;4.3869;4.624
24.313000;0.5422;-1.2005;4.1487;4.353
24.321000;0.1165;-1.2589;3.3413;3.572
24.331000;-0.0771;-1.1435;2.1434;2.431
24.340000;-0.0655;-0.8256;0.7593;1.124
24.353000;0.2274;-0.3117;-0.6918;0.792
24.408000;0.7903;0.3676;-2.3532;2.509
24.410000;1.5364;1.0631;-3.4862;3.955
24.412000;2.3280;1.5702;-3.4549;4.452
24.414000;2.9340;1.5897;-2.3053;4.056
24.415000;3.0848;1.2018;-0.4794;3.345
24.416000;2.6556;0.6796;1.4274;3.091
24.422000;1.7653;0.0706;2.2957;2.897
24.438000;0.4740;-0.6467;2.1472;2.292
24.441000;-0.5785;-1.3077;1.6161;2.158
24.485000;-1.2245;-1.7371;0.9270;2.319
24.487000;-1.5079;-1.7717;-0.1059;2.329
24.487000;-1.4498;-1.4241;-1.2399;2.381
24.489000;-1.1585;-0.8298;-2.0960;2.535
24.491000;-0.6405;-0.1335;-2.4149;2.502
24.502000;-0.0708;0.5543;-2.3647;2.430
24.513000;0.4213;1.1126;-2.4762;2.747
24.521000;0.7258;1.4187;-2.8455;3.261
24.532000;0.8808;1.4927;-3.1863;3.627
24.540000;0.8630;1.3465;-3.5407;3.885
24.551000;0.8095;1.2511;-3.8639;4.141
24.608000;0.6771;1.0122;-3.9801;4.162
24.610000;0.3832;0.7111;-3.7486;3.835
24.611000;0.1264;0.3833;-3.2746;3.299
24.613000;-0.0407;0.0967;-2.7640;2.766
24.614000;-0.1410;-0.1618;-2.0476;2.059
24.615000;-0.1010;-0.1582;-1.6904;1.701
24.621000;-0.0115;-0.0339;-1.3129;1.313
24.635000;0.1084;0.1513;-1.0277;1.044
24.641000;0.2076;0.2574;-0.7391;0.810
24.682000;0.2965;0.2198;-0.2894;0.469
24.684000;0.3627;0.0308;0.3854;0.530
24.684000;0.3517;-0.2666;1.2684;1.343
24.686000;0.2430;-0.6202;2.2855;2.381
24.690000;0.0773;-1.0483;3.2537;3.419
24.700000;-0.1822;-1.5013;4.1269;4.395
24.713000;-0.5087;-1.7728;4.8183;5.159
24.721000;-0.8467;-1.7240;4.7038;5.081
24.731000;-0.9323;-1.2874;3.7353;4.059
24.741000;-0.5775;-0.7158;2.6838;2.837
24.751000;0.1790;-0.3960;2.0181;2.064
24.761000;1.0937;-0.3512;2.4053;2.666
24.802000;1.6376;-0.5779;3.6296;4.024
24.804000;1.4988;-1.0674;5.2692;5.581
24.805000;0.9013;-1.6225;6.6561;6.910
24.807000;-0.2561;-2.2257;7.1118;7.456
24.814000;-1.4666;-2.8103;6.3890;7.132
24.821000;-2.1907;-2.9808;4.6020;5.904
24.831000;-2.3105;-2.6162;2.1865;4.119
24.841000;-1.9963;-1.8961;0.2636;2.766
24.851000;-1.4237;-1.0377;-0.8229;1.944
24.896000;-0.5604;-0.1062;-1.2639;1.387
24.898000;0.4431;0.7421;-0.9019;1.249
24.900000;1.2808;1.2317;0.0586;1.778
24.901000;1.6228;1.2027;1.0881;2.294
24.902000;1.4165;0.7197;1.9528;2.518
24.914000;0.8237;0.0388;2.2915;2.435
24.921000;0.1358;-0.6610;1.7498;1.875
24.932000;-0.5806;-1.4316;0.4243;1.602
24.941000;-0.5946;-1.2651;-0.3766;1.448
24.951000;-0.5119;-0.7543;-1.5050;1.760
24.961000;-0.3323;-0.1115;-2.3468;2.373
25.012000;-0.0321;0.3995;-2.7097;2.739
25.014000;0.2985;0.8426;-2.8647;3.001
25.015000;0.5803;1.1892;-3.1111;3.381
25.016000;0.7802;1.4756;-3.5011;3.879
25.017000;0.8915;1.6833;-4.0251;4.453
25.020000;0.8996;1.8222;-4.5293;4.964
25.031000;0.8473;1.8733;-4.8627;5.279
25.041000;0.8024;1.8423;-4.9540;5.346
25.053000;0.7191;1.8003;-4.7727;5.151
25.063000;0.6293;1.7166;-4.3920;4.757
25.101000;0.5516;1.5412;-3.8273;4.163
25.103000;0.4608;1.2776;-3.1065;3.390
25.105000;0.3209;0.9915;-2.4151;2.630
25.106000;0.0732;0.7873;-1.6679;1.846
25.111000;-0.2123;0.7038;-0.9404;1.194
25.121000;-0.4521;0.7054;-0.5065;0.979
25.136000;-0.6290;0.7342;-0.4421;1.063
25.141000;-0.7276;0.6870;-0.5829;1.158
25.184000;-0.7947;0.5597;-0.6018;1.143
25.186000;-0.7477;0.3762;-0.2995;0.889
25.186000;-0.5624;0.1713;0.2563;0.641
25.187000;-0.2779;-0.0568;1.1860;1.219
25.191000;-0.1341;-0.4245;2.5619;2.600
25.201000;-0.2423;-0.8887;4.1551;4.256
25.212000;-0.4878;-1.3280;5.4397;5.621
25.222000;-0.7242;-1.5125;5.9215;6.154
25.237000;-0.7365;-1.3087;5.4120;5.616
25.241000;-0.4834;-1.0034;4.7838;4.912
25.294000;-0.0127;-0.9524;4.7118;4.807
25.296000;0.6584;-1.5390;6.9373;7.136
25.298000;0.5145;-1.8065;8.0046;8.222
25.299000;0.0143;-2.2639;8.2467;8.552
25.300000;-0.5757;-2.7010;7.3891;7.888
25.302000;-1.0158;-3.0314;5.6842;6.522
25.310000;-1.0763;-3.0524;3.4520;4.732
25.321000;-0.8372;-2.6325;1.1132;2.978
25.336000;-0.3281;-1.8397;-1.1979;2.220
25.341000;0.3739;-0.8814;-3.3648;3.498
25.382000;1.0509;0.2006;-5.0638;5.176
25.385000;1.7817;1.1536;-6.1279;6.485
25.386000;2.3317;1.6285;-6.1658;6.790
25.387000;2.5742;1.5053;-4.9683;5.795
25.391000;2.3768;1.0184;-2.9226;3.902
25.401000;1.8739;0.6787;-0.8857;2.181
25.410000;1.1847;0.3052;0.1491;1.232
25.420000;0.4124;-0.1638;0.0430;0.446
25.435000;-0.2254;-0.4708;-0.5642;0.769
25.441000;-0.7077;-0.6952;-1.2190;1.572
25.499000;-1.0139;-0.8444;-1.7789;2.215
25.501000;-1.1469;-0.7603;-2.1525;2.555
25.502000;-1.1135;-0.5668;-2.5306;2.822
25.504000;-0.9128;-0.3565;-2.9444;3.103
25.506000;-0.6278;-0.1477;-3.1877;3.252
25.507000;-0.2804;0.0599;-3.4102;3.422
25.511000;-0.0012;0.2472;-3.7109;3.719
25.521000;0.1582;0.3747;-3.8307;3.852
25.536000;0.2128;0.3804;-3.6730;3.699
25.541000;0.2381;0.2652;-3.3185;3.338
25.584000;0.2366;0.0599;-2.8104;2.821
25.585000;0.2118;-0.1601;-2.2262;2.242
25.586000;0.0747;-0.3647;-1.7626;1.802
25.587000;-0.1358;-0.5939;-1.3679;1.497
25.591000;-0.6739;-0.8097;-0.2879;1.092
25.601000;-0.7665;-0.8638;0.0527;1.156
25.611000;-0.8186;-0.8948;0.2205;1.233
25.621000;-0.8560;-0.9659;0.4915;1.381
25.637000;-0.8456;-1.0569;0.9321;1.643
25.641000;-0.9059;-1.0982;1.5679;2.118
25.706000;-1.0160;-1.1065;2.1979;2.662
25.708000;-1.2913;-0.9923;2.7149;3.166
25.710000;-1.4638;-0.6677;2.8876;3.306
25.712000;-1.4853;-0.3299;2.6497;3.055
25.715000;-1.0458;-0.0898;2.3949;2.615
25.716000;-0.2828;-0.1507;2.4998;2.520
25.718000;0.4290;-0.3939;3.3134;3.364
25.721000;0.7159;-0.7991;5.1511;5.262
25.736000;0.4249;-1.5006;7.4082;7.571
25.741000;-0.4254;-2.3083;9.0131;9.314
25.784000;-1.7549;-2.8615;9.4866;10.063
25.786000;-2.9710;-3.1017;7.8125;8.915
25.788000;-3.3249;-2.7001;4.6149;6.296
25.790000;-3.0509;-1.7664;1.6714;3.901
25.791000;-2.3699;-0.7449;-0.8746;2.634
25.801000;-1.5551;0.3861;-2.6191;3.070
25.811000;-0.7247;1.4172;-3.5367;3.878
25.822000;0.0903;2.1679;-3.3273;3.972
25.838000;0.6866;2.3553;-2.1510;3.263
25.842000;0.8834;1.9253;-0.8363;2.277
25.902000;0.6844;1.2178;0.1764;1.408
25.903000;0.0927;0.4125;0.2997;0.518
25.905000;-0.6178;-0.3876;-0.2158;0.761
25.905000;-1.1784;-0.9737;-0.5950;1.640
25.907000;-1.5542;-1.3450;-1.0028;2.287
25.908000;-1.7278;-1.5260;-1.4266;2.711
25.912000;-1.8377;-1.6162;-1.8496;3.068
25.922000;-1.4908;-1.1666;-1.8141;2.622
25.936000;-1.0373;-0.7799;-1.8743;2.280
25.941000;-0.5397;-0.2983;-2.0911;2.180
25.984000;-0.1295;0.1683;-2.5257;2.535
25.986000;0.1984;0.4961;-2.9831;3.031
25.987000;0.4961;0.7306;-3.3120;3.428
25.989000;0.6364;0.9868;-3.5081;3.699
25.991000;0.7104;1.1910;-3.7710;4.018
26.001000;0.8683;1.2954;-3.8322;4.137
26.011000;0.9986;1.3723;-3.4737;3.866
26.021000;1.1418;1.3981;-3.0262;3.524
26.038000;1.1955;1.3468;-2.4276;3.023
26.042000;1.0638;1.2254;-1.6937;2.346
26.099000;0.7900;1.0303;-0.9800;1.627
26.101000;0.4547;0.8150;-0.5590;1.088
26.103000;0.1039;0.5680;-0.1562;0.598
26.103000;-0.0982;0.3291;0.5071;0.612
26.104000;-0.1856;0.1401;1.3768;1.396
26.105000;-0.1280;0.0005;2.1632;2.167
26.111000;0.0272;-0.0674;2.7076;2.709
26.121000;0.1903;-0.1549;3.0680;3.078
26.138000;0.2491;-0.4083;3.4250;3.458
26.142000;0.1150;-0.8992;3.9690;4.071
26.210000;-0.1296;-1.4355;4.4904;4.716
26.214000;-0.4537;-1.6595;4.4074;4.731
26.215000;-1.0191;-1.8980;3.3710;4.001
26.217000;-1.0230;-2.0104;1.8822;2.938
26.218000;-1.0189;-1.8400;0.7948;2.248
26.219000;-0.7850;-1.6141;0.5601;1.880
26.220000;-0.4229;-1.3162;1.2913;1.892
26.221000;-0.1047;-1.2291;2.4921;2.781
26.236000;0.0018;-1.3580;4.7274;4.919
26.241000;-0.0620;-1.5608;4.7233;4.975
26.294000;-0.3252;-1.7991;4.0388;4.433
26.297000;-0.8660;-1.4135;2.8519;3.299
26.299000;-0.8395;-1.0509;1.4149;1.952
26.300000;-0.6186;-0.7470;0.0495;0.971
26.302000;-0.1120;-0.3789;-1.0109;1.085
26.302000;0.4917;0.1100;-1.5235;1.605
26.311000;1.1167;0.4630;-1.5771;1.987
26.321000;1.4687;0.5493;-0.7235;1.727
26.337000;1.5213;0.5007;0.5364;1.689
26.341000;1.3250;0.4131;1.4730;2.024
26.386000;0.9595;0.2798;1.3124;1.650
26.387000;0.5874;0.2327;0.4670;0.786
26.388000;0.3424;0.3126;-0.5955;0.755
26.389000;0.2833;0.4801;-1.5722;1.668
26.391000;0.3290;0.7268;-2.2656;2.402
26.400000;0.4115;0.9631;-2.7094;2.905
26.410000;0.5027;1.1572;-3.0055;3.260
26.421000;0.5944;1.2780;-3.2429;3.536
26.438000;0.6526;1.3645;-3.4711;3.786
26.441000;0.7572;1.4257;-3.7040;4.040
26.496000;0.7967;1.3285;-3.7434;4.051
26.498000;0.7533;1.0999;-3.5589;3.800
26.500000;0.7112;0.8062;-3.2657;3.438
26.501000;0.6796;0.5719;-3.0278;3.155
26.503000;0.6226;0.4023;-2.8571;2.952
26.504000;0.5110;0.2966;-2.6548;2.720
26.511000;0.4231;0.2198;-2.2029;2.254
26.521000;0.3026;0.0847;-1.3839;1.419
26.531000;0.2359;-0.0609;-0.5800;0.629
26.542000;0.2126;-0.1491;-0.0146;0.260
26.590000;0.1626;-0.1992;0.1906;0.320
26.591000;0.1283;-0.2474;0.2359;0.365
26.592000;0.1378;-0.2747;0.4736;0.565
26.593000;0.2087;-0.3860;2.0337;2.080
26.594000;0.3837;-0.5253;2.9754;3.046
26.601000;0.5451;-0.6723;3.9548;4.048
26.611000;0.5112;-0.8620;4.9173;5.018
26.621000;0.3827;-1.0125;5.4987;5.604
26.637000;0.1491;-1.0552;5.5533;5.655
26.641000;-0.0613;-0.8191;4.8642;4.933
26.704000;-0.2066;-0.5434;3.9369;3.980
26.706000;-0.2017;-0.3634;3.1881;3.215
26.707000;0.0369;-0.3676;3.1732;3.195
26.709000;0.1762;-0.5477;4.1656;4.205
26.710000;0.0484;-0.8398;5.3341;5.400
26.711000;-0.3742;-1.2417;5.9438;6.084
26.713000;-1.0647;-1.6743;5.7025;6.038
26.721000;-1.8132;-1.9804;4.3939;5.149
26.738000;-2.2955;-1.8929;2.2687;3.742
26.741000;-2.4496;-1.4654;0.1930;2.861
26.787000;-2.3922;-0.9355;-1.5145;2.982
26.790000;-2.0248;-0.2078;-2.8375;3.492
26.791000;-1.7105;0.5177;-3.7314;4.137
26.793000;-1.1349;1.0856;-4.1664;4.453
26.795000;-0.2999;1.4759;-4.2544;4.513
26.801000;0.6344;1.5722;-3.6979;4.068
26.811000;1.2387;1.2637;-2.8456;3.351
26.823000;1.3915;0.7924;-1.7817;2.396
26.840000;1.0598;0.3123;-0.7141;1.316
26.843000;0.5370;-0.2195;-0.3390;0.672
26.924000;0.1275;-0.7833;-0.6963;1.056
26.926000;-0.0475;-1.2069;-1.3226;1.791
26.927000;-0.1759;-1.3748;-1.8423;2.305
26.929000;-0.2728;-1.4080;-2.4344;2.825
26.931000;-0.2639;-1.2552;-2.7607;3.044
26.932000;-0.1526;-0.8780;-2.8431;2.979
26.934000;0.2076;0.1743;-2.8673;2.880
26.935000;0.4520;0.6398;-3.1467;3.243
26.936000;0.6690;1.0225;-3.4516;3.662
26.941000;0.8432;1.2727;-3.6136;3.923
26.955000;0.9129;1.3090;-3.4631;3.813
26.961000;0.7722;1.1487;-3.0533;3.352
27.006000;0.5280;0.8420;-2.4507;2.645
27.008000;0.3035;0.4915;-1.8074;1.897
27.009000;-0.1061;0.1977;-1.0924;1.115
27.011000;-0.6036;-0.0340;-0.2746;0.664
27.012000;-1.0647;-0.2383;0.4661;1.186
27.021000;-1.3123;-0.3484;1.0352;1.707
27.031000;-1.2949;-0.4163;1.4014;1.953
27.043000;-1.1112;-0.4101;1.6623;2.041
27.096000;-0.8971;-0.3401;2.1097;2.318
27.099000;-0.6080;-0.2905;2.7860;2.866
27.100000;-0.1837;-0.2375;3.6107;3.623
27.102000;0.2087;-0.3590;4.4071;4.427
27.103000;0.3263;-0.6748;5.0512;5.107
27.104000;0.0286;-1.0021;5.4325;5.524
27.111000;-0.6330;-1.2039;5.0456;5.226
27.121000;-1.1526;-1.1800;3.7131;4.063
27.138000;-1.2346;-0.9548;2.3532;2.824
27.142000;-0.9415;-0.7648;1.5173;1.943
27.184000;-0.5926;-0.6104;1.2827;1.539
27.185000;-0.3129;-0.3819;1.7089;1.779
27.186000;-0.0075;-0.1648;2.3283;2.334
27.187000;0.2387;-0.2162;2.9847;3.002
27.191000;0.1916;-0.6142;3.5764;3.634
27.201000;-0.1181;-1.0687;3.6928;3.846
27.210000;-0.4229;-1.3904;3.0006;3.334
27.221000;-0.5123;-1.3343;2.1593;2.589
27.231000;-0.4516;-1.0342;1.2464;1.681
27.241000;-0.0861;-0.7433;-0.1108;0.756
27.295000;1.1114;-0.0762;-2.0739;2.354
27.296000;1.8171;0.4186;-2.0757;2.790
27.298000;2.3391;0.7779;-1.4447;2.857
27.300000;2.4005;0.9219;-0.4490;2.610
27.301000;1.9407;0.8312;0.3775;2.145
27.302000;1.2021;0.5585;0.6128;1.460
27.311000;0.3926;0.1826;0.0490;0.436
27.321000;-0.2590;-0.0570;-0.8317;0.873
27.331000;-0.5892;-0.0616;-1.7193;1.819
27.341000;-0.6026;0.1944;-2.6057;2.681
27.388000;-0.4264;0.4820;-3.2930;3.355
27.390000;-0.1256;0.7914;-3.5594;3.648
27.391000;0.2125;1.0854;-3.8031;3.961
27.392000;0.4631;1.2662;-3.8458;4.075
27.394000;0.5952;1.3255;-3.7897;4.059
27.401000;0.6023;1.2566;-3.7558;4.006
27.410000;0.5311;1.0013;-3.7547;3.922
27.421000;0.4054;0.6825;-3.6471;3.732
27.430000;0.3139;0.3617;-3.5665;3.599
27.441000;0.2366;0.0463;-3.2822;3.291
27.496000;0.1526;-0.3104;-2.7802;2.802
27.498000;0.1788;-0.5500;-2.1829;2.258
27.500000;0.2498;-0.6565;-1.5021;1.658
27.501000;0.2689;-0.8220;-0.7569;1.149
27.503000;0.2849;-0.9130;-0.1650;0.971
27.503000;0.2746;-0.9040;0.3000;0.991
27.511000;0.3077;-0.8087;0.7243;1.128
27.521000;0.3753;-0.6727;1.1267;1.365
27.531000;0.5237;-0.5645;1.4853;1.673
27.541000;0.5821;-0.4894;1.9748;2.116
27.555000;0.6434;-0.4418;2.5746;2.690
27.561000;0.6925;-0.4215;3.1629;3.265
27.612000;0.7566;-0.4627;3.7925;3.895
27.614000;0.5271;-0.6874;4.7814;4.859
27.615000;0.2389;-0.6934;4.5217;4.581
27.617000;-0.0470;-0.6129;4.0711;4.117
27.618000;-0.1755;-0.5163;3.6443;3.685
27.622000;-0.2134;-0.5335;3.6128;3.658
27.630000;-0.3516;-0.6701;4.2374;4.304
27.641000;-0.5947;-0.9208;5.0076;5.126
27.655000;-1.0036;-1.3689;5.5165;5.772
27.661000;-1.4961;-1.8904;5.6324;6.127
27.706000;-2.0869;-2.1210;4.7461;5.602
27.708000;-2.4978;-1.8496;3.1270;4.409
27.710000;-2.6752;-1.1545;1.4629;3.260
27.711000;-2.4969;-0.4994;0.0114;2.546
27.712000;-2.0454;0.2113;-1.2485;2.406
27.721000;-1.4266;1.0076;-2.2728;2.866
27.731000;-0.6382;1.6655;-3.0251;3.512
27.742000;0.3326;1.8348;-3.1813;3.688
27.789000;1.2348;1.5378;-2.1102;2.888
27.791000;1.6431;1.0545;-0.1861;1.961
27.792000;1.3288;0.5087;1.5703;2.119
27.793000;0.6209;-0.2104;2.1547;2.252
27.794000;-0.1399;-0.9860;1.6827;1.955
27.802000;-0.6719;-1.7358;0.7787;2.018
27.811000;-0.9808;-2.2331;-0.3979;2.471
27.822000;-1.1347;-2.3902;-1.8129;3.207
27.832000;-1.1280;-2.1229;-2.7993;3.690
27.841000;-0.9652;-1.7066;-3.3422;3.875
27.934000;-0.6985;-1.2719;-3.2851;3.591
27.936000;-0.3302;-0.7979;-2.8230;2.952
27.936000;0.0183;-0.2892;-2.6426;2.658
27.938000;0.2652;0.1177;-2.9889;3.003
27.939000;0.3808;0.3779;-3.4916;3.533
27.939000;0.4274;0.5059;-4.2124;4.264
27.940000;0.5627;0.5576;-4.3339;4.406
27.942000;0.6681;0.5041;-3.9931;4.080
27.943000;0.7107;0.4712;-3.4119;3.517
27.944000;0.7098;0.4516;-2.7098;2.837
27.952000;0.6976;0.3934;-1.9896;2.145
27.961000;0.6537;0.3296;-1.4579;1.631
27.972000;0.6166;0.2310;-0.9657;1.169
27.981000;0.5568;0.1462;-0.3706;0.685
28.023000;0.5006;0.0597;0.1322;0.521
28.025000;0.4550;-0.0746;0.5476;0.716
28.025000;0.4648;-0.3181;1.0489;1.191
28.027000;0.5728;-0.5714;1.7563;1.934
28.031000;0.6869;-0.8390;2.6853;2.896
28.041000;0.7425;-1.1509;3.7818;4.022
28.060000;0.6413;-1.4115;4.7209;4.969
28.063000;0.3367;-1.5416;5.3985;5.624
28.113000;-0.1136;-1.4249;5.1490;5.344
28.115000;-0.3978;-1.0327;3.8177;3.975
28.117000;-0.3435;-0.5419;2.5163;2.597
28.118000;0.0398;-0.1586;1.9039;1.911
28.119000;0.6600;-0.0150;1.8467;1.961
28.123000;1.1129;-0.2291;2.5793;2.819
28.131000;1.0264;-0.9788;4.2532;4.483
28.141000;0.3660;-1.7601;5.8700;6.139
28.157000;-0.7060;-2.2599;6.0034;6.453
28.161000;-1.5387;-2.4340;5.0713;5.832
28.215000;-1.9174;-2.2264;3.2238;4.362
28.217000;-1.9116;-1.7930;1.2769;2.915
28.218000;-1.6516;-1.2414;-0.1014;2.069
28.220000;-1.0764;-0.5149;-1.3322;1.788
28.221000;-0.2528;0.3923;-2.6435;2.684
28.222000;0.6737;1.1784;-3.5298;3.782
28.231000;1.5195;1.5178;-3.7950;4.361
28.241000;2.2607;1.2870;-0.9511;2.770
28.257000;2.2424;0.4892;1.1195;2.554
28.261000;1.5498;0.1647;2.2727;2.756
28.306000;0.7118;-0.2758;2.4764;2.591
28.309000;0.0163;-0.6589;2.1050;2.206
28.310000;-0.3431;-0.8593;1.1962;1.512
28.311000;-0.3923;-0.8351;0.0818;0.926
28.312000;-0.2506;-0.5008;-0.8260;0.998
28.322000;-0.0182;-0.0020;-1.3852;1.385
28.331000;0.1848;0.4790;-1.6420;1.720
28.341000;0.3477;0.7702;-1.9284;2.105
28.358000;0.4919;0.9200;-2.3729;2.592
28.362000;0.5903;1.0423;-2.8621;3.103
28.429000;0.5825;1.1891;-3.3426;3.595
28.431000;0.4587;1.3028;-3.7204;3.969
28.434000;0.2945;1.3409;-3.7660;4.008
28.435000;0.1117;1.2230;-3.4283;3.642
28.437000;-0.0862;0.9793;-2.7565;2.927
28.438000;-0.2911;0.6424;-1.9136;2.039
28.439000;-0.4738;0.2662;-1.0337;1.168
28.442000;-0.6580;-0.0748;-0.2553;0.710
28.458000;-0.8624;-0.3042;0.4746;1.030
28.463000;-1.1038;-0.4834;1.3552;1.813
28.508000;-1.2815;-0.6876;2.0308;2.498
28.511000;-1.4042;-0.7449;2.2266;2.736
28.512000;-1.2326;-0.5742;2.1463;2.541
28.513000;-1.0039;-0.2613;1.6722;1.968
28.514000;-0.7546;0.0863;1.0802;1.321
28.521000;-0.4796;0.3462;0.9478;1.117
28.531000;-0.2899;0.4289;1.3499;1.446
28.541000;-0.1786;0.3457;2.0015;2.039
28.559000;-0.1389;0.2384;2.5812;2.596
28.562000;-0.1670;0.0688;2.9665;2.972
28.626000;-0.3177;-0.0341;2.9713;2.988
28.627000;-0.7051;-0.0138;2.2449;2.353
28.628000;-0.6601;0.0577;1.7593;1.880
28.629000;-0.3876;0.1014;1.1762;1.243
28.631000;-0.0550;0.0942;0.9087;0.915
28.632000;0.1133;-0.1834;1.2866;1.305
28.632000;-0.0488;-0.8639;2.2176;2.380
28.641000;-0.5702;-1.6422;2.9486;3.423
28.656000;-1.2239;-2.3762;3.2859;4.236
28.660000;-1.6586;-3.0333;3.2360;4.735
28.699000;-1.8149;-3.2299;2.6613;4.562
28.701000;-1.9147;-2.7101;1.6823;3.720
28.702000;-1.6512;-1.6915;0.5656;2.431
28.704000;-1.1643;-0.7225;-0.4996;1.458
28.711000;-0.6197;0.0049;-1.4287;1.557
28.721000;-0.0957;0.5674;-2.2364;2.309
28.730000;0.3672;0.9853;-2.6281;2.831
28.741000;0.6275;1.0080;-2.7267;2.974
28.757000;0.8129;0.5529;-2.5538;2.736
28.761000;0.8149;-0.0986;-2.0269;2.187
28.822000;0.6334;-0.7178;-1.2708;1.591
28.824000;0.2941;-1.3539;-0.5679;1.497
28.826000;0.0163;-1.8636;0.0403;1.864
28.827000;-0.1525;-2.2068;0.5141;2.271
28.828000;-0.2727;-2.4921;0.6990;2.603
28.829000;-0.4204;-2.5634;0.5977;2.666
28.831000;-0.5110;-2.3023;0.2145;2.368
28.841000;-0.5373;-1.8479;-0.2027;1.935
28.858000;-0.5439;-1.4363;-0.5341;1.626
28.862000;-0.4374;-1.1487;-1.0493;1.616
28.907000;-0.2595;-0.9422;-1.4404;1.741
28.909000;-0.1201;-0.7776;-1.5097;1.702
28.911000;-0.0705;-0.7369;-1.5259;1.696
28.912000;-0.0128;-0.7004;-1.3644;1.534
28.914000;-0.0037;-0.7076;-0.1174;0.717
28.921000;-0.0129;-0.7606;0.6505;1.001
28.931000;0.0455;-0.9004;1.3554;1.628
28.941000;0.1368;-1.1255;1.9407;2.248
28.957000;0.1957;-1.3547;2.6696;3.000
28.961000;0.1585;-1.5276;3.3082;3.647
29.017000;0.0676;-1.6730;3.6328;4.000
29.019000;-0.0695;-1.7158;3.6410;4.026
29.020000;-0.1972;-1.6759;3.1817;3.602
29.022000;-0.2798;-1.6084;2.2889;2.811
29.023000;-0.3278;-1.4765;1.1555;1.903
29.024000;-0.2847;-1.2559;0.0239;1.288
29.031000;-0.2372;-0.9861;-0.8166;1.302
29.041000;-0.1616;-0.7450;-1.4105;1.603
29.057000;-0.1145;-0.4133;-1.9940;2.040
29.061000;-0.0695;-0.1325;-2.5508;2.555
29.108000;0.0006;0.0997;-2.9058;2.907
29.111000;0.1741;0.3238;-2.9688;2.992
29.112000;0.4194;0.5408;-2.8607;2.941
29.114000;0.6523;0.7179;-2.5492;2.728
29.115000;0.8259;0.8883;-2.0322;2.367
29.123000;0.9038;1.0026;-1.5080;2.024
29.131000;0.8682;1.0211;-1.0547;1.705
29.141000;0.8030;1.0352;-0.7685;1.519
29.158000;0.7596;1.0974;-0.7850;1.548
29.162000;0.7466;1.1716;-0.8877;1.649
29.228000;0.7843;1.2574;-0.9273;1.748
29.230000;0.8701;1.3600;-0.9236;1.860
29.231000;0.9787;1.4511;-0.8988;1.968
29.233000;1.0254;1.4261;-0.7854;1.924
29.234000;0.9776;1.2454;-0.5243;1.668
29.236000;0.8749;0.9105;-0.1674;1.274
29.237000;0.6975;0.4990;0.6194;1.058
29.241000;0.1145;-0.1871;1.2454;1.265
29.258000;-0.2682;-0.4728;1.5932;1.683
29.261000;-0.5419;-0.6959;1.6613;1.881
29.307000;-0.6892;-0.7658;1.4302;1.763
29.309000;-0.6760;-0.6622;0.9160;1.317
29.310000;-0.5532;-0.6057;0.5340;0.979
29.312000;-0.3253;-0.3669;0.4068;0.637
29.313000;-0.0404;-0.1036;0.3351;0.353
29.321000;0.1481;0.1036;0.2576;0.315
29.330000;0.2685;0.2181;0.2727;0.440
29.341000;0.4020;0.3126;0.3042;0.593
29.351000;0.4370;0.2883;0.3604;0.636
29.370000;0.5015;0.3196;0.2486;0.645
29.371000;0.5651;0.4531;0.3019;0.785
29.381000;0.6398;0.4673;0.4720;0.922
29.420000;0.6924;0.4741;0.4432;0.949
29.421000;0.8015;0.5522;0.2829;1.014
29.422000;0.9108;0.6152;0.1302;1.107
29.423000;1.0195;0.7401;-0.0953;1.263
29.431000;1.0571;0.8517;-0.2270;1.376
29.441000;1.1582;0.9557;-0.3133;1.534
29.451000;1.2786;1.0281;-0.5480;1.730
29.461000;1.3415;1.0874;-0.7016;1.864
29.510000;1.3532;1.1070;-0.8461;1.942
29.511000;1.2917;1.0161;-0.7535;1.808
29.513000;1.1395;0.9690;-0.4119;1.551
29.514000;0.9955;0.8812;0.0979;1.333
29.515000;0.8852;0.7220;0.5191;1.255
29.521000;0.7412;0.5330;0.7626;1.190
29.531000;0.6005;0.3243;0.7006;0.978
29.542000;0.4921;0.2405;0.3353;0.642
29.553000;0.3984;0.1860;-0.0160;0.440
29.561000;0.3683;0.1014;-0.2131;0.437
29.636000;0.4617;0.0199;-0.3699;0.592
29.638000;0.4689;0.0413;-0.1105;0.484
29.639000;0.7101;0.2771;0.6790;1.021
29.639000;0.6116;0.4289;-0.1672;0.765
29.641000;0.2979;0.4927;-0.9034;1.071
29.642000;0.4641;0.4529;-0.2574;0.698
29.645000;0.5074;0.3518;-0.1814;0.644
29.647000;0.3474;0.2847;-0.2833;0.531
29.656000;0.1416;0.3820;-0.1869;0.448
29.662000;0.0482;0.4019;0.0858;0.414
29.682000;-0.0057;0.4627;0.5023;0.683
29.687000;0.0958;0.4618;0.9346;1.047
29.761000;0.3224;0.3593;0.9243;1.043
29.763000;0.5512;0.2584;0.6036;0.857
29.764000;0.4850;0.3052;0.4489;0.728
29.765000;0.6239;0.3279;0.2466;0.747
29.766000;0.8742;0.4175;0.4491;1.068
29.769000;0.6857;0.3495;0.9457;1.219
29.771000;0.2290;0.2703;1.3141;1.361
29.773000;-0.0314;0.3064;1.4772;1.509
29.775000;-0.3517;0.3116;1.5793;1.648
29.782000;-0.4300;0.2141;1.3928;1.473
29.799000;-0.4225;0.1790;1.1492;1.237
29.803000;-0.3572;0.1839;0.8500;0.940
29.819000;-0.2013;0.2306;0.3880;0.494
29.852000;0.0098;0.2721;0.0435;0.276
29.854000;0.2046;0.5176;-0.1479;0.576
29.855000;0.3719;0.7967;-0.1707;0.896
29.856000;0.3215;1.0151;0.1067;1.070
29.861000;0.3210;1.1701;0.6293;1.367
29.872000;0.3308;1.1951;1.3593;1.840
29.882000;0.4578;0.6833;2.2856;2.429
29.894000;0.2668;0.2851;2.1005;2.136
29.901000;-0.0410;0.0245;1.5448;1.546
29.953000;-0.3445;-0.0546;0.7483;0.826
29.955000;-0.4674;0.0273;-0.2239;0.519
29.956000;-0.5093;0.1118;-0.9247;1.062
29.956000;-0.5012;-0.0125;-1.3341;1.425
29.958000;-0.0634;0.2221;-1.2737;1.294
29.962000;0.3082;0.7170;-1.0842;1.336
29.972000;0.2629;1.1872;-1.2479;1.742
29.981000;0.1273;1.7131;-1.7403;2.445
29.995000;-0.1365;2.2705;-2.1190;3.109
30.002000;-0.6346;2.5888;-2.1444;3.421
30.047000;-1.2197;2.4607;-1.7184;3.240
30.050000;-1.3699;1.9027;-0.8871;2.507
30.053000;-1.1257;1.0726;-0.1387;1.561
30.055000;-0.8146;0.1829;0.2113;0.861
30.056000;-0.6270;-0.3366;0.1510;0.728
30.061000;-0.7044;-0.3462;0.1203;0.794
30.077000;-0.7669;-0.0045;0.3132;0.828
30.081000;-0.5876;0.4093;0.7043;1.004
30.127000;-0.3521;0.8010;0.9671;1.304
30.128000;-0.2543;1.0732;1.0450;1.519
30.130000;-0.3085;1.1494;1.1370;1.646
30.131000;-0.3454;1.0377;1.0930;1.546
30.132000;-0.3379;0.8199;0.9162;1.275
30.141000;-0.3618;0.5696;0.6294;0.923
30.151000;-0.5096;0.2478;0.3894;0.688
30.162000;-0.8494;0.0192;0.3256;0.910
30.210000;-0.9743;-0.0391;0.3411;1.033
30.212000;-1.1133;-0.0309;0.2378;1.139
30.213000;-1.4440;0.0738;0.1242;1.451
30.215000;-1.4144;0.1825;-0.0349;1.427
30.215000;-1.2775;0.1337;-0.1010;1.288
30.223000;-1.1461;-0.0305;-0.3762;1.207
30.231000;-1.0611;-0.1777;-0.3111;1.120
30.241000;-0.9001;-0.0051;-0.1576;0.914
30.251000;-0.7824;0.1400;-0.2716;0.840
30.262000;-0.8321;0.2534;-0.5313;1.019
30.323000;-0.8880;0.3532;-0.8088;1.252
30.324000;-0.7763;0.3986;-0.8005;1.184
30.325000;-0.6397;0.4119;-0.5659;0.948
30.327000;-0.6453;0.3822;-0.2942;0.806
30.328000;-0.6620;0.3688;-0.1309;0.769
30.329000;-0.6483;0.3691;-0.1820;0.768
30.332000;-0.5715;0.3624;-0.2831;0.734
30.341000;-0.6620;0.3594;-0.2153;0.783
30.351000;-0.5692;0.4146;0.1814;0.727
30.362000;-0.4879;0.4067;0.4637;0.786
30.410000;-0.3701;0.4034;0.4446;0.705
30.413000;-0.2717;0.4490;0.3332;0.622
30.414000;-0.2435;0.4875;0.1281;0.560
30.415000;-0.2329;0.5478;-0.0835;0.601
30.416000;-0.1942;0.5289;-0.0904;0.571
30.423000;-0.1423;0.4362;0.0289;0.460
30.431000;-0.0958;0.3377;0.1940;0.401
30.442000;-0.0688;0.2426;0.3443;0.427
30.451000;-0.0621;0.2113;0.3412;0.406
30.461000;-0.0547;0.2102;0.2341;0.319
30.523000;-0.0698;0.2227;0.1250;0.265
30.525000;-0.1023;0.2043;0.1318;0.264
30.525000;-0.0938;0.1725;0.1839;0.269
30.526000;-0.1269;0.1172;0.1964;0.262
30.527000;0.0130;0.1558;0.2757;0.317
30.527000;0.0284;0.1747;0.2989;0.347
30.531000;0.0584;0.2212;0.2123;0.312
30.542000;0.1262;0.3360;0.1880;0.405
30.551000;0.0796;0.4115;0.0992;0.431
30.562000;0.1114;0.4683;0.0664;0.486
30.608000;0.2546;0.5772;0.0610;0.634
30.610000;0.2844;0.6115;0.2026;0.704
30.611000;0.3298;0.6198;0.3557;0.787
30.612000;0.3119;0.6048;0.4165;0.798
30.612000;0.2554;0.5690;0.4222;0.753
30.622000;0.2365;0.5429;0.4065;0.718
30.631000;0.2630;0.5072;0.3621;0.676
30.642000;0.3059;0.4791;0.2936;0.640
30.651000;0.3272;0.4157;0.3124;0.614
30.661000;0.3352;0.3516;0.3870;0.621
30.738000;0.3610;0.2983;0.4730;0.666
30.740000;0.4832;0.3122;0.6762;0.888
30.741000;0.5547;0.3552;0.8252;1.056
30.743000;0.5459;0.3183;0.7723;0.998
30.744000;0.5389;0.2736;0.5358;0.808
30.745000;0.5417;0.2641;0.3074;0.677
30.745000;0.5316;0.2553;0.1467;0.608
30.746000;0.4992;0.2142;-0.0029;0.543
30.751000;0.4423;0.1799;-0.1201;0.492
30.761000;0.4157;0.1481;-0.2552;0.510
30.777000;0.4175;0.1256;-0.3365;0.551
30.782000;0.4534;0.1088;-0.4264;0.632
30.828000;0.4470;0.0981;-0.4328;0.630
30.835000;0.3992;0.1046;-0.4026;0.577
30.837000;0.3501;0.1143;-0.4358;0.571
30.838000;0.2994;0.1061;-0.4669;0.565
30.839000;0.2635;0.0601;-0.4694;0.542
30.845000;0.2212;0.0619;-0.4556;0.510
30.854000;0.2741;0.0698;-0.3250;0.431
30.862000;0.1747;0.0699;-0.3192;0.371
30.879000;0.1098;0.0872;-0.2215;0.262
30.882000;0.0708;0.1418;-0.1168;0.197
30.952000;0.0575;0.1878;-0.0612;0.206
30.954000;-0.1928;0.1690;-0.1359;0.290
30.956000;-0.2749;0.1015;-0.1115;0.314
30.957000;-0.2597;0.0822;0.0621;0.279
30.958000;-0.1850;0.1177;0.3861;0.444
30.959000;-0.1316;0.1667;0.6677;0.701
30.960000;-0.1325;0.1958;0.8068;0.841
30.962000;-0.1384;0.2287;0.8364;0.878
30.972000;-0.1204;0.2132;0.8498;0.884
30.981000;-0.0999;0.1903;0.8565;0.883
30.994000;-0.0700;0.2003;0.8266;0.853
31.001000;-0.0640;0.2418;0.7865;0.825
31.044000;-0.0511;0.3118;0.6621;0.734
31.046000;0.0087;0.3802;0.5444;0.664
31.047000;0.0807;0.3861;0.5049;0.641
31.048000;0.1403;0.3989;0.5398;0.686
31.051000;0.1950;0.3832;0.5605;0.706
31.061000;0.1939;0.3154;0.5370;0.652
31.071000;0.1450;0.2280;0.4348;0.512
31.081000;0.0983;0.1905;0.3174;0.383
31.127000;0.0882;0.1609;0.2207;0.287
31.129000;0.1111;0.1448;0.1039;0.210
31.130000;0.1080;0.1384;-0.0462;0.182
31.130000;0.1191;0.1368;-0.1803;0.256
31.132000;0.1460;0.1610;-0.2344;0.320
31.142000;0.1516;0.1913;-0.2598;0.356
31.151000;0.1603;0.2147;-0.2820;0.389
31.164000;0.0904;0.1616;-0.3212;0.371
31.210000;0.1225;0.1193;-0.2413;0.296
31.212000;0.0705;0.0265;-0.0866;0.115
31.213000;-0.0303;-0.0458;-0.0137;0.057
31.214000;-0.1591;-0.1191;0.0064;0.199
31.215000;-0.1859;-0.1503;-0.0070;0.239
31.224000;-0.2669;-0.1737;-0.0455;0.322
31.231000;-0.2921;-0.2021;-0.0780;0.364
31.241000;-0.2859;-0.1989;-0.0902;0.360
31.251000;-0.2506;-0.1817;-0.0486;0.313
31.264000;-0.2693;-0.1619;-0.0193;0.315
31.335000;-0.3185;-0.1667;-0.0082;0.360
31.337000;-0.3288;-0.1764;-0.0510;0.377
31.338000;-0.3084;-0.1824;-0.1344;0.383
31.340000;-0.2822;-0.1888;-0.1938;0.391
31.341000;-0.2867;-0.1990;-0.1767;0.391
31.341000;-0.2789;-0.1813;-0.1202;0.354
31.342000;-0.2898;-0.1512;-0.0986;0.341
31.343000;-0.3327;-0.1285;-0.1427;0.384
31.351000;-0.2240;-0.0953;-0.1605;0.292
31.361000;-0.2470;-0.0806;-0.3266;0.417
31.378000;-0.2471;-0.0465;-0.3944;0.468
31.381000;-0.1434;0.0130;-0.3717;0.399
31.426000;-0.1521;0.0753;-0.2944;0.340
31.428000;-0.0396;0.1365;-0.0824;0.164
31.428000;-0.0296;0.1072;0.0382;0.118
31.429000;-0.0740;0.0739;0.0916;0.139
31.432000;-0.1537;0.0488;0.1426;0.215
31.442000;-0.3040;-0.0050;0.2056;0.367
31.451000;-0.3045;-0.0195;0.3282;0.448
31.462000;-0.2997;-0.0140;0.3337;0.449
31.471000;-0.2080;0.0061;0.3260;0.387
31.510000;-0.1772;0.0327;0.2346;0.296
31.511000;-0.2000;0.1053;0.0988;0.247
31.512000;-0.1982;0.1742;0.0622;0.271
31.513000;-0.0816;0.2239;0.2238;0.327
31.524000;-0.0068;0.2669;0.4775;0.547
31.531000;-0.0490;0.2722;0.5580;0.623
