time;ax;ay;az;aT
0.003000;-0.4528;0.2579;-0.3938;0.653
0.004000;-0.3637;0.2292;-0.1516;0.456
0.015000;-0.2426;0.1936;0.1097;0.329
0.048000;-0.0848;0.1456;0.2380;0.292
0.048000;0.0423;0.0344;0.3314;0.336
0.048000;0.1501;0.0029;0.3901;0.418
0.055000;0.2517;-0.0035;0.4031;0.475
0.064000;0.2750;-0.0078;0.4329;0.513
0.083000;0.2157;-0.0198;0.3872;0.444
0.083000;0.1375;0.0216;0.3379;0.365
0.101000;0.0725;0.0770;0.3198;0.337
0.103000;0.0152;0.1152;0.3808;0.398
0.118000;-0.0329;0.1328;0.4335;0.455
0.164000;-0.0487;0.1589;0.4599;0.489
0.165000;-0.0335;0.1569;0.4624;0.489
0.165000;0.0204;0.1138;0.5105;0.523
0.166000;0.0722;0.0776;0.5753;0.585
0.166000;0.1084;0.1064;0.6389;0.657
0.174000;0.1137;0.1243;0.6018;0.625
0.183000;0.1132;0.1156;0.4605;0.488
0.201000;0.1242;0.0749;0.3382;0.368
0.203000;0.0854;0.0174;0.0950;0.129
0.214000;0.0410;-0.0081;-0.0584;0.072
0.245000;0.0167;-0.0467;-0.0789;0.093
0.246000;0.0364;-0.0648;0.0408;0.085
0.246000;0.0227;-0.0752;0.1700;0.187
0.254000;0.0025;-0.0836;0.2682;0.281
0.265000;-0.0051;-0.0810;0.3317;0.341
0.284000;-0.0297;-0.0726;0.2839;0.295
0.285000;0.0065;-0.0990;0.1917;0.216
0.299000;0.3030;0.0416;0.3030;0.431
0.303000;0.1006;0.0556;0.2909;0.313
0.316000;-0.2298;-0.1826;-0.0613;0.300
0.361000;-0.1567;-0.3057;-0.1501;0.375
0.362000;0.0072;-0.2491;-0.0137;0.250
0.363000;0.0277;-0.0795;0.2507;0.264
0.363000;-0.1038;-0.1900;0.3116;0.379
0.369000;-0.1445;-0.2975;0.2816;0.434
0.384000;-0.0348;-0.2970;0.3102;0.431
0.385000;0.0756;-0.1858;0.3555;0.408
0.401000;0.0415;-0.1175;0.3972;0.416
0.403000;-0.0476;-0.0881;0.3635;0.377
0.419000;-0.1147;-0.1238;0.2209;0.278
0.424000;-0.0449;-0.1270;0.1249;0.184
0.461000;0.0051;-0.1564;0.0577;0.167
0.462000;-0.0175;-0.1597;-0.0034;0.161
0.463000;-0.0918;-0.1928;0.0240;0.215
0.471000;-0.0775;-0.1923;0.1210;0.240
0.474000;-0.0428;-0.1816;0.2862;0.342
0.483000;-0.0356;-0.1538;0.3353;0.371
0.502000;-0.0345;-0.1310;0.2671;0.300
0.504000;-0.0371;-0.1227;0.1487;0.196
0.543000;-0.0493;-0.1267;0.0088;0.136
0.544000;-0.0599;-0.1097;-0.1012;0.161
0.545000;-0.0852;-0.1243;-0.2185;0.265
0.545000;-0.0630;-0.1355;-0.1849;0.238
0.554000;-0.0599;-0.1354;-0.0676;0.163
0.564000;-0.0800;-0.1111;0.0066;0.137
0.574000;-0.1159;-0.0820;0.0186;0.143
0.585000;-0.1962;-0.0084;0.0773;0.211
0.604000;-0.2507;0.0286;0.0942;0.269
0.605000;-0.3077;0.0465;0.0117;0.311
0.615000;-0.3170;0.0593;-0.0563;0.327
0.625000;-0.2678;0.0309;0.1032;0.289
0.663000;-0.1775;-0.0052;0.1765;0.250
0.665000;-0.0707;-0.0157;0.1984;0.211
0.665000;0.0115;0.0090;0.2298;0.230
0.666000;0.0322;0.0536;0.0925;0.112
0.675000;-0.0121;0.1138;-0.0807;0.140
0.684000;-0.0407;0.1036;-0.1903;0.220
0.702000;-0.0045;0.1166;-0.2294;0.257
0.704000;0.0235;0.1857;-0.2289;0.296
0.714000;-0.0280;0.2376;-0.3112;0.393
0.751000;-0.0470;0.2096;-0.3159;0.382
0.753000;-0.0239;0.1713;-0.1674;0.241
0.755000;0.0251;0.1745;0.0444;0.182
0.756000;-0.0052;0.1533;0.1866;0.242
0.765000;-0.0420;0.1236;0.2583;0.289
0.775000;-0.0213;0.1369;0.2666;0.300
0.784000;0.0208;0.1536;0.1193;0.196
0.803000;0.0175;0.1812;-0.0052;0.182
0.804000;0.0007;0.1998;-0.1118;0.229
0.815000;0.0506;0.2774;-0.1000;0.299
0.824000;0.0885;0.3099;-0.0751;0.331
0.863000;0.0411;0.3282;-0.0921;0.343
0.864000;-0.1087;0.2439;0.0524;0.272
0.865000;-0.1720;0.1649;0.1347;0.274
0.866000;-0.1702;0.1290;0.2447;0.325
0.874000;-0.1375;0.0745;0.2949;0.334
0.884000;-0.1477;-0.0197;0.2925;0.328
0.895000;-0.1385;-0.1031;0.2459;0.300
0.904000;-0.0902;-0.1373;0.3178;0.358
0.915000;-0.0691;-0.1220;0.2270;0.267
0.925000;-0.0923;-0.1382;0.1217;0.206
0.958000;-0.1299;-0.1501;0.0165;0.199
0.960000;-0.1192;-0.2112;-0.2120;0.322
0.961000;-0.0519;-0.1652;-0.1916;0.258
0.964000;-0.0102;-0.1182;-0.2383;0.266
0.974000;-0.0037;-0.1086;-0.2826;0.303
0.984000;-0.0828;-0.1217;-0.2431;0.284
0.994000;-0.1405;-0.1495;-0.0947;0.226
1.004000;-0.1206;-0.1440;0.0728;0.201
1.014000;-0.1150;-0.1534;0.2894;0.347
1.024000;-0.0331;-0.1874;0.3576;0.405
1.034000;0.0253;-0.0957;0.4187;0.430
1.083000;0.0796;-0.0143;0.2989;0.310
1.085000;0.1201;0.0729;0.2391;0.277
1.086000;0.1081;0.1239;0.1912;0.252
1.087000;0.0957;0.1825;0.2260;0.306
1.088000;0.0648;0.1829;0.2846;0.344
1.094000;0.0350;0.1685;0.3001;0.346
1.104000;0.0131;0.1502;0.3706;0.400
1.115000;-0.0364;0.1348;0.3561;0.383
1.124000;-0.1121;0.1140;0.2891;0.330
1.158000;-0.0910;0.0663;0.1707;0.204
1.160000;0.0126;0.0364;0.1194;0.125
1.160000;0.1415;0.0124;0.0669;0.157
1.164000;0.1560;0.0269;0.1629;0.227
1.174000;0.1617;0.0006;0.1941;0.253
1.184000;0.1568;-0.0430;0.1511;0.222
1.194000;0.1616;-0.0830;0.2409;0.302
1.204000;0.5020;0.0668;0.3486;0.615
1.214000;0.2337;-0.2260;0.4000;0.516
1.224000;-0.0175;-0.4326;0.3007;0.527
1.235000;-0.0830;-0.3158;0.5293;0.622
1.275000;0.0283;-0.2277;0.6718;0.710
1.277000;0.1797;-0.2532;0.6419;0.713
1.279000;0.2830;-0.2688;0.5509;0.675
1.279000;0.0674;-0.1384;0.3138;0.350
1.284000;-0.0345;-0.0834;0.1916;0.212
1.294000;-0.0528;-0.0567;0.0968;0.124
1.304000;-0.0506;-0.0258;-0.0076;0.057
1.321000;-0.0571;0.0029;0.0099;0.058
1.325000;-0.0617;0.0444;-0.0144;0.077
1.375000;-0.0691;0.0804;-0.0471;0.116
1.378000;-0.0948;0.1156;-0.1575;0.217
1.378000;-0.0637;0.1262;-0.2750;0.309
1.379000;-0.0409;0.0771;-0.2944;0.307
1.380000;-0.0414;0.0126;-0.2921;0.295
1.384000;-0.0306;-0.0037;-0.1521;0.155
1.394000;-0.0282;0.0004;-0.0253;0.038
1.404000;0.0207;0.0478;0.0104;0.053
1.415000;0.0515;0.0990;-0.0245;0.114
1.424000;0.1024;0.1062;-0.2151;0.261
1.452000;0.1314;0.1242;-0.4703;0.504
1.454000;0.1587;0.1207;-0.6441;0.674
1.455000;0.1109;0.0506;-0.6671;0.678
1.464000;0.0463;-0.0432;-0.6349;0.638
1.475000;0.0180;-0.0654;-0.5022;0.507
1.484000;0.0686;-0.0547;-0.2797;0.293
1.495000;0.1660;-0.0051;-0.1351;0.214
1.504000;0.2512;0.0995;-0.0396;0.273
1.514000;0.3224;0.2128;-0.0088;0.386
1.524000;0.3064;0.2892;0.0113;0.421
1.536000;0.2353;0.3075;-0.0488;0.390
1.594000;0.1790;0.2979;-0.0285;0.349
1.596000;0.1434;0.2715;0.0683;0.315
1.597000;0.1198;0.2237;0.2311;0.343
1.598000;0.0880;0.1704;0.4778;0.515
1.599000;0.0461;0.1238;0.7497;0.761
1.600000;-0.0098;0.1312;0.9737;0.983
1.604000;-0.0628;0.1409;1.0875;1.098
1.615000;-0.1262;0.1582;1.0529;1.072
1.624000;-0.0836;0.1833;0.9428;0.964
1.635000;-0.0820;0.2127;0.8135;0.845
1.680000;-0.1183;0.1752;0.6818;0.714
1.682000;-0.1240;0.1668;0.5608;0.598
1.683000;-0.1390;0.1571;0.5033;0.545
1.684000;-0.1638;0.0791;0.4541;0.489
1.685000;-0.1178;0.0071;0.4169;0.433
1.695000;-0.0638;-0.0234;0.3893;0.395
1.704000;-0.0180;-0.0154;0.2731;0.274
1.714000;0.0123;0.0282;0.1725;0.175
1.724000;0.0434;0.0090;0.0684;0.081
1.735000;0.0581;-0.0424;0.0240;0.076
1.767000;0.0514;-0.0575;0.0528;0.093
1.768000;0.0590;-0.0823;0.1042;0.145
1.769000;0.0320;-0.0785;0.1114;0.140
1.774000;0.0269;-0.0999;0.1473;0.180
1.785000;0.0656;-0.0984;0.1318;0.177
1.795000;0.0768;-0.0681;0.1283;0.164
1.803000;0.0477;-0.0375;0.0505;0.079
1.814000;0.0339;-0.0154;-0.0081;0.038
1.823000;0.0040;-0.0111;-0.0774;0.078
1.835000;-0.0213;0.0190;-0.1301;0.133
1.868000;-0.0405;0.0038;-0.1240;0.131
1.869000;-0.0220;-0.0026;-0.0821;0.085
1.870000;0.0303;-0.0146;0.0316;0.046
1.874000;0.0360;-0.0469;0.1357;0.148
1.884000;-0.0268;-0.0611;0.2387;0.248
1.894000;-0.1115;-0.0747;0.2591;0.292
1.903000;-0.1640;-0.0710;0.2316;0.293
1.914000;-0.1602;-0.0261;0.1861;0.247
1.924000;-0.1127;-0.0044;0.1514;0.189
1.934000;-0.1700;0.0217;0.1407;0.222
1.971000;-0.2310;0.0272;0.0880;0.249
1.973000;-0.2748;0.0066;0.0521;0.280
1.974000;-0.2055;0.0043;0.0246;0.207
1.974000;-0.0664;0.0005;0.1371;0.152
1.984000;0.0351;-0.0272;0.2579;0.262
1.995000;0.0917;0.0154;0.2578;0.274
2.003000;0.1437;0.1041;0.3643;0.405
2.014000;0.1372;0.0439;0.3797;0.406
2.024000;0.0557;-0.0060;0.3652;0.369
2.034000;0.0241;-0.0111;0.3783;0.379
2.075000;0.0244;-0.0151;0.3782;0.379
2.077000;0.0597;0.0054;0.3518;0.357
2.078000;0.0676;0.0001;0.3458;0.352
2.079000;0.0343;-0.0402;0.2164;0.223
2.084000;0.0230;-0.0318;0.1482;0.153
2.095000;0.0048;0.0057;0.0560;0.057
2.104000;-0.0816;-0.0173;-0.0122;0.084
2.114000;-0.1739;-0.0958;-0.0923;0.219
2.124000;-0.1656;-0.1108;-0.0552;0.207
2.134000;-0.0903;-0.0995;-0.0479;0.143
2.185000;-0.0557;-0.0909;-0.0287;0.110
2.186000;-0.0361;-0.0772;0.0072;0.086
2.187000;-0.0188;-0.0269;0.0504;0.060
2.188000;-0.0247;-0.0139;0.0912;0.095
2.189000;-0.0790;-0.0156;0.0421;0.091
2.195000;-0.0758;-0.0098;0.0075;0.077
2.203000;-0.0297;-0.0125;-0.0680;0.075
2.214000;-0.0022;0.0514;-0.0632;0.081
2.224000;0.0044;0.0279;-0.0799;0.085
2.236000;0.0392;0.0419;0.0266;0.063
2.272000;0.0409;0.0441;0.0267;0.066
2.274000;0.0790;0.0419;0.0902;0.127
2.274000;0.1088;0.0622;0.1489;0.195
2.275000;0.1465;0.0553;0.2196;0.270
2.284000;0.1754;0.0649;0.1981;0.272
2.296000;0.1782;0.0735;0.1898;0.270
2.304000;0.1437;0.0603;0.1815;0.239
2.314000;0.1324;0.0653;0.1755;0.229
2.323000;0.1296;0.0418;0.2318;0.269
2.335000;0.1030;0.0452;0.2833;0.305
2.381000;0.1036;0.0490;0.3276;0.347
2.382000;0.0994;0.0562;0.3085;0.329
2.383000;0.0873;0.0589;0.2582;0.279
2.384000;0.1283;0.0762;0.1996;0.249
2.384000;0.1525;0.0688;0.1410;0.219
2.394000;0.1481;0.0813;0.1146;0.204
2.404000;0.1270;0.0732;0.0943;0.174
2.417000;0.0965;0.0763;0.1158;0.169
2.461000;0.0797;0.0596;0.1576;0.186
2.462000;0.0449;0.0313;0.2078;0.215
2.463000;0.0476;-0.0219;0.2557;0.261
2.464000;0.0522;-0.0341;0.3359;0.342
2.465000;0.0599;-0.0157;0.3586;0.364
2.474000;0.0338;0.0535;0.3753;0.381
2.484000;0.0733;0.0815;0.2174;0.243
2.496000;0.0921;0.1338;0.0522;0.171
2.504000;0.0812;0.1411;-0.0591;0.173
2.514000;0.0224;0.1152;-0.1620;0.200
2.524000;-0.0690;0.0643;-0.1045;0.141
2.534000;-0.1159;-0.0143;0.0212;0.119
2.568000;-0.1052;-0.0400;0.1959;0.226
2.569000;-0.0867;-0.0710;0.3384;0.356
2.570000;-0.0749;-0.0856;0.3623;0.380
2.574000;-0.0823;-0.0904;0.3898;0.409
2.584000;-0.0927;-0.0762;0.2917;0.315
2.595000;-0.0882;-0.0258;0.1936;0.214
2.604000;-0.0396;-0.0142;0.0763;0.087
2.614000;-0.0453;-0.0335;0.1278;0.140
2.624000;-0.0655;-0.0139;0.1769;0.189
2.636000;-0.0784;-0.0194;0.1399;0.162
2.671000;-0.0625;-0.0226;0.1531;0.167
2.672000;-0.0301;-0.0351;0.1220;0.130
2.673000;-0.0063;-0.0829;0.1316;0.156
2.674000;-0.0174;-0.1373;0.1280;0.189
2.684000;-0.0601;-0.1312;0.0826;0.166
2.695000;-0.0852;-0.1346;0.0838;0.180
2.704000;-0.1048;-0.1548;0.0360;0.190
2.714000;-0.0685;-0.1414;0.0277;0.160
2.724000;-0.0179;-0.1020;-0.0093;0.104
2.734000;0.0052;-0.0928;0.0087;0.093
2.770000;0.0089;-0.0883;0.0411;0.098
2.771000;-0.0377;-0.0957;0.0747;0.127
2.772000;-0.0770;-0.1006;0.0880;0.154
2.774000;-0.0322;-0.1042;0.1371;0.175
2.784000;-0.0067;-0.1148;0.1348;0.177
2.795000;0.0410;-0.0942;0.1360;0.170
2.804000;0.0885;-0.0854;0.1479;0.192
2.814000;0.0932;-0.1177;0.2352;0.279
2.823000;0.0187;-0.1512;0.3369;0.370
2.835000;-0.0680;-0.1614;0.3944;0.432
2.872000;-0.1250;-0.1425;0.3310;0.381
2.873000;-0.1548;-0.1362;0.2318;0.310
2.874000;-0.1606;-0.1141;0.1134;0.227
2.875000;-0.1915;-0.0885;0.0896;0.229
2.884000;-0.2173;-0.0370;0.1029;0.243
2.896000;-0.2299;-0.0202;0.0994;0.251
2.903000;-0.2328;-0.0121;0.1330;0.268
2.914000;-0.1988;0.0487;0.0972;0.227
2.924000;-0.1724;0.0712;0.0542;0.194
2.934000;-0.1413;0.0988;-0.1348;0.219
2.972000;-0.1166;0.1008;-0.1957;0.249
2.973000;-0.1337;0.0473;-0.2985;0.330
2.974000;-0.0167;-0.0283;-0.0793;0.086
2.975000;0.0269;-0.0417;0.3815;0.385
2.984000;0.0825;-0.1434;0.2507;0.300
2.996000;0.0548;-0.2150;0.3702;0.432
3.003000;0.0782;-0.1401;0.2766;0.320
3.014000;0.0560;-0.0993;0.2262;0.253
3.023000;0.0441;-0.1103;0.1316;0.177
3.034000;0.0505;-0.0951;0.0695;0.128
3.044000;0.0534;-0.0644;0.0361;0.091
3.073000;0.0495;-0.0470;-0.0212;0.072
3.074000;0.0300;-0.0305;0.0363;0.056
3.075000;0.0508;-0.0254;0.1237;0.136
3.084000;0.0132;0.0005;0.1417;0.142
3.094000;-0.0569;0.0393;0.1620;0.176
3.103000;-0.1012;0.0551;0.1190;0.166
3.116000;-0.0998;0.0729;0.0951;0.156
3.124000;0.0112;0.1164;0.0689;0.136
3.151000;0.0920;0.1277;0.0318;0.161
3.152000;0.1170;0.1351;-0.0089;0.179
3.154000;0.1248;0.1725;-0.0066;0.213
3.164000;0.0910;0.1709;-0.0007;0.194
3.174000;0.0689;0.1270;0.1034;0.178
3.184000;0.0784;0.0738;0.1751;0.206
3.194000;0.0833;0.0497;0.2661;0.283
3.203000;0.1026;0.0543;0.2624;0.287
3.217000;0.1431;0.0793;0.2169;0.272
3.224000;0.1977;0.1164;0.1846;0.294
3.261000;0.2754;0.1538;0.1618;0.355
3.263000;0.2905;0.1546;0.1342;0.355
3.263000;0.1962;0.1142;0.2384;0.329
3.264000;0.1266;0.0234;0.3258;0.350
3.274000;0.0347;-0.0289;0.4241;0.426
3.284000;0.0126;-0.0110;0.4709;0.471
3.294000;-0.0162;0.0471;0.4796;0.482
3.304000;-0.0849;0.0456;0.4152;0.426
3.318000;-0.1693;0.0421;0.3532;0.394
3.324000;-0.2147;0.0587;0.2984;0.372
3.364000;-0.2317;0.0593;0.2807;0.369
3.366000;-0.2483;0.0696;0.2713;0.374
3.367000;-0.2669;0.0417;0.3085;0.410
3.367000;-0.2650;0.0272;0.2954;0.398
3.374000;-0.2360;0.0223;0.2930;0.377
3.384000;-0.2215;-0.0165;0.2787;0.356
3.395000;-0.2013;-0.0337;0.2453;0.319
3.404000;-0.1847;-0.0013;0.2107;0.280
3.419000;-0.1408;0.0366;0.1414;0.203
3.424000;-0.0824;0.0544;0.1128;0.150
3.469000;-0.0672;0.0357;0.0709;0.104
3.470000;-0.0423;0.0468;0.0638;0.090
3.471000;-0.0240;0.0495;0.1045;0.118
3.471000;-0.0315;0.0326;0.1596;0.166
3.474000;-0.0231;0.0492;0.1968;0.204
3.484000;-0.0030;0.0568;0.1789;0.188
3.494000;0.0515;0.0446;0.1167;0.135
3.504000;0.0853;0.0475;0.0317;0.103
3.518000;0.0993;0.0650;0.0365;0.124
3.524000;0.0964;0.0573;0.0545;0.125
3.564000;0.0235;0.0247;0.0270;0.043
3.566000;-0.0176;0.0054;0.0138;0.023
3.567000;-0.0188;-0.0313;-0.0184;0.041
3.568000;-0.0075;-0.0527;-0.0040;0.053
3.574000;-0.0046;-0.0399;0.0067;0.041
3.584000;-0.0077;-0.0302;0.0151;0.035
3.594000;0.0026;0.0252;0.0353;0.043
3.604000;0.0176;0.0734;0.0041;0.076
3.619000;0.0294;0.0959;-0.0690;0.122
3.624000;-0.0065;0.0942;-0.1313;0.162
3.660000;-0.0033;0.0953;-0.1541;0.181
3.662000;0.0183;0.0762;-0.0764;0.109
3.662000;0.0382;0.0410;0.0540;0.078
3.664000;0.0347;0.0255;0.2047;0.209
3.674000;0.0213;0.0477;0.2955;0.300
3.684000;0.0323;0.0668;0.3325;0.341
3.694000;0.0269;0.0905;0.3048;0.319
3.703000;0.0138;0.1028;0.2616;0.281
3.718000;-0.0062;0.1260;0.2221;0.255
3.724000;0.0002;0.1464;0.1502;0.210
3.754000;-0.0058;0.1190;0.1896;0.224
3.756000;-0.0284;0.0997;0.2494;0.270
3.757000;-0.0780;0.0920;0.3271;0.349
3.764000;-0.0690;0.1217;0.2935;0.325
3.774000;-0.0761;0.1332;0.2097;0.260
3.785000;-0.0733;0.1089;0.0984;0.164
3.794000;-0.0717;0.0656;0.0375;0.104
3.804000;-0.0722;0.0117;0.0208;0.076
3.819000;-0.0921;-0.0562;0.0795;0.134
3.824000;-0.1139;-0.0916;0.1943;0.243
3.860000;-0.1533;-0.0995;0.2554;0.314
3.862000;-0.1833;-0.0844;0.2734;0.340
3.862000;-0.1376;-0.0720;0.2423;0.288
3.864000;-0.0850;-0.0657;0.2233;0.248
3.874000;-0.0625;-0.0638;0.1659;0.188
3.884000;-0.0909;-0.0633;0.1696;0.203
3.894000;-0.1279;-0.0470;0.1469;0.200
3.904000;-0.1368;-0.0340;0.1338;0.194
3.919000;-0.1645;-0.0398;0.1541;0.229
3.924000;-0.1647;-0.0644;0.1481;0.231
3.969000;-0.0983;-0.0754;0.1097;0.165
3.970000;-0.0312;-0.0710;0.0176;0.079
3.972000;-0.0139;-0.0717;-0.0363;0.082
3.973000;-0.0209;-0.0618;-0.0650;0.092
3.975000;-0.0235;-0.0431;-0.0770;0.091
3.985000;-0.0045;-0.0262;0.0044;0.027
3.994000;0.0169;-0.0065;0.0187;0.026
4.004000;0.0069;0.0241;0.0437;0.050
4.019000;-0.0265;0.0403;0.0664;0.082
4.024000;-0.0729;0.0711;0.0304;0.106
4.066000;-0.0831;0.0985;0.0412;0.135
4.068000;-0.0612;0.0774;0.0245;0.102
4.069000;-0.0010;0.0770;0.0293;0.082
4.070000;0.0536;0.0499;0.1466;0.164
4.074000;0.0706;0.0136;0.2519;0.262
4.084000;0.0936;-0.0001;0.3368;0.350
4.094000;0.1091;-0.0026;0.3667;0.383
4.104000;0.1091;-0.0208;0.3642;0.381
4.119000;0.1181;-0.0152;0.2983;0.321
4.124000;0.1578;0.0083;0.2480;0.294
4.169000;0.1973;-0.0052;0.2107;0.289
4.170000;0.2491;0.0222;0.2464;0.351
4.171000;0.2545;0.0261;0.2941;0.390
4.172000;0.2613;0.0175;0.3669;0.451
4.174000;0.2192;-0.0166;0.4027;0.459
4.184000;0.1621;-0.0164;0.4349;0.464
4.194000;0.1247;-0.0670;0.4874;0.508
4.204000;0.1057;-0.0888;0.5377;0.555
4.220000;0.0642;-0.0672;0.5197;0.528
4.224000;0.0039;-0.0125;0.4839;0.484
4.259000;-0.0846;0.0441;0.1931;0.215
4.260000;-0.1669;0.1241;0.1933;0.284
4.261000;-0.1995;0.2550;-0.0411;0.326
4.268000;-0.1940;0.2732;-0.1127;0.354
4.274000;-0.1822;0.2276;-0.0779;0.302
4.284000;-0.1609;0.1443;0.0767;0.229
4.294000;-0.1433;0.0538;0.2539;0.297
4.304000;-0.1575;-0.0146;0.4120;0.441
4.320000;-0.1299;-0.0384;0.4491;0.469
4.324000;-0.0164;-0.0476;0.3103;0.314
4.360000;0.0442;0.0452;0.1727;0.184
4.362000;0.0932;0.0802;0.1368;0.184
4.364000;0.1808;0.1765;0.0195;0.253
4.365000;0.0175;0.1030;0.0805;0.132
4.374000;-0.2041;-0.0326;-0.1998;0.287
4.384000;-0.3325;-0.0067;-0.2538;0.418
4.394000;-0.3060;0.0247;-0.1666;0.349
4.404000;-0.4065;-0.0082;-0.1991;0.453
4.420000;-0.2657;-0.0205;-0.1311;0.297
4.424000;0.0256;-0.0551;0.1080;0.124
4.456000;0.2216;-0.1066;0.3363;0.417
4.458000;0.2707;-0.1833;0.4498;0.556
4.459000;0.2403;-0.2369;0.4376;0.553
4.468000;0.1972;-0.2140;0.3718;0.472
4.475000;0.1492;-0.1694;0.2330;0.324
4.484000;0.0214;-0.1501;0.0835;0.173
4.494000;-0.1129;-0.1819;-0.0791;0.228
4.504000;-0.1289;-0.1776;-0.1231;0.252
4.519000;-0.0447;-0.1124;-0.1360;0.182
4.524000;0.0691;-0.0115;-0.0543;0.089
4.556000;0.0913;-0.0029;-0.0110;0.092
4.557000;0.0790;0.0287;-0.0311;0.090
4.558000;0.0342;0.0509;0.0205;0.065
4.566000;-0.0225;0.0291;0.0445;0.058
4.574000;-0.0551;-0.0082;0.0829;0.100
4.584000;-0.0509;-0.0373;0.1416;0.155
4.594000;-0.0591;-0.0532;0.0723;0.107
4.604000;-0.0155;-0.0187;0.0280;0.037
4.620000;-0.0126;-0.0219;-0.0223;0.034
4.624000;-0.0357;-0.0204;-0.0008;0.041
4.663000;-0.0685;-0.0105;0.0686;0.097
4.664000;-0.0995;-0.0198;0.1032;0.145
4.665000;-0.1090;-0.0076;0.1044;0.151
4.666000;-0.0904;0.0223;0.1068;0.142
4.674000;-0.0664;0.0323;0.0206;0.077
4.684000;-0.0632;0.0527;-0.0057;0.083
4.694000;-0.0744;0.0483;0.0339;0.095
4.704000;-0.0677;0.0556;0.1045;0.136
4.721000;-0.0790;0.0946;0.1620;0.204
4.725000;-0.0676;0.1196;0.1262;0.187
4.760000;-0.0010;0.1110;0.0496;0.122
4.762000;0.0693;0.1298;0.0078;0.147
4.764000;0.0968;0.1206;-0.0388;0.159
4.765000;0.0856;0.1034;-0.0316;0.138
4.774000;0.0712;0.0786;0.0463;0.116
4.784000;0.0344;0.0495;0.1685;0.179
4.794000;0.0054;0.0202;0.2893;0.290
4.804000;0.0047;0.0176;0.3778;0.378
4.821000;0.0233;0.0349;0.4184;0.420
4.824000;0.0658;0.0664;0.3477;0.360
4.865000;0.0803;0.1028;0.2482;0.280
4.867000;0.0678;0.1032;0.1631;0.205
4.869000;0.0766;0.1162;0.1582;0.211
4.870000;0.0735;0.1187;0.2168;0.258
4.874000;0.0367;0.1363;0.2215;0.263
4.884000;0.0168;0.1383;0.1842;0.231
4.894000;0.0433;0.1444;0.0680;0.165
4.904000;0.0728;0.1542;0.0308;0.173
4.921000;0.0627;0.1075;-0.0124;0.125
4.925000;-0.0731;0.0102;0.1502;0.167
4.972000;-0.0879;-0.0148;0.2578;0.273
4.974000;-0.0547;-0.0020;0.3080;0.313
4.975000;0.0105;0.0345;0.2073;0.210
4.976000;0.0622;0.0895;0.1163;0.159
4.977000;0.0588;0.1293;-0.0214;0.144
4.984000;0.0470;0.1560;-0.0908;0.187
4.994000;0.0353;0.1512;-0.1555;0.220
5.004000;-0.0385;0.1075;-0.1794;0.213
5.023000;-0.0723;0.0842;-0.1303;0.171
5.025000;-0.0574;0.0582;-0.0167;0.083
5.055000;-0.0364;0.0395;0.1161;0.128
5.056000;-0.0998;0.0419;0.3182;0.336
5.057000;-0.1365;0.0185;0.4725;0.492
5.065000;-0.1527;0.0115;0.5515;0.572
5.073000;-0.0966;0.0590;0.4868;0.500
5.083000;-0.0410;0.0966;0.3169;0.334
5.094000;-0.0169;0.1147;0.1086;0.159
5.104000;-0.0525;0.1201;0.0297;0.134
5.119000;-0.1084;0.1539;0.0261;0.190
5.124000;-0.1481;0.1529;0.0572;0.220
5.154000;-0.1568;0.1404;0.0895;0.229
5.155000;-0.1646;0.1373;0.1039;0.238
5.156000;-0.1682;0.1408;0.1290;0.255
5.163000;-0.1507;0.1429;0.0871;0.225
5.174000;-0.1434;0.1485;0.0764;0.220
5.183000;-0.1299;0.1629;0.0333;0.211
5.194000;-0.1587;0.2004;0.0286;0.257
5.204000;-0.1854;0.1974;0.0106;0.271
5.214000;-0.2216;0.1605;0.0370;0.276
5.225000;-0.2121;0.1435;0.0574;0.262
5.265000;-0.1719;0.1798;0.1424;0.287
5.267000;-0.1102;0.2107;0.1891;0.304
5.268000;-0.0211;0.2729;0.1519;0.313
5.269000;0.0010;0.2970;0.1399;0.328
5.274000;-0.0171;0.3161;0.1039;0.333
5.284000;-0.0233;0.3250;0.1135;0.345
5.294000;-0.0298;0.3445;0.1303;0.370
5.304000;-0.0340;0.3510;0.1482;0.383
5.315000;-0.0213;0.3424;0.2225;0.409
5.326000;-0.0049;0.3534;0.2884;0.456
5.368000;0.0055;0.3885;0.2537;0.464
5.370000;0.0220;0.3974;0.2239;0.457
5.371000;-0.0103;0.3667;0.1318;0.390
5.371000;-0.0195;0.3365;0.0566;0.342
5.374000;-0.0293;0.3095;0.1023;0.327
5.384000;-0.0447;0.2543;0.0930;0.274
5.394000;-0.0369;0.1847;0.1422;0.236
5.404000;-0.0359;0.0952;0.2368;0.258
5.414000;-0.0473;0.0196;0.2632;0.268
5.424000;-0.0517;-0.0018;0.2596;0.265
5.456000;-0.0441;-0.0037;0.1579;0.164
5.458000;-0.0480;-0.0127;-0.0240;0.055
5.459000;-0.0117;-0.0043;-0.2298;0.230
5.464000;0.0150;0.0014;-0.3435;0.344
5.474000;0.0120;0.0042;-0.4188;0.419
5.484000;0.0446;0.0545;-0.4571;0.462
5.494000;0.0822;0.1148;-0.3840;0.409
5.504000;0.1304;0.1504;-0.2738;0.338
5.514000;0.2392;0.1629;-0.2474;0.381
5.525000;0.3444;0.1989;-0.2569;0.473
5.560000;0.4152;0.2377;-0.2151;0.525
5.562000;0.4301;0.2747;-0.1553;0.533
5.562000;0.4544;0.2970;-0.0920;0.551
5.564000;0.4661;0.3019;-0.0611;0.559
5.574000;0.4899;0.2881;-0.0231;0.569
5.584000;0.5107;0.2591;0.0652;0.576
5.594000;0.5024;0.0926;0.1427;0.530
5.604000;0.4982;0.0442;0.2345;0.552
5.614000;0.4774;0.0263;0.3180;0.574
5.624000;0.4739;0.0842;0.4122;0.634
5.674000;0.4689;0.1297;0.4298;0.649
5.676000;0.4569;0.2045;0.4199;0.653
5.677000;0.4160;0.3208;0.3465;0.629
5.678000;0.2768;0.3990;0.2612;0.551
5.679000;0.1766;0.4378;0.2406;0.530
5.684000;0.1895;0.5256;0.2907;0.630
5.694000;0.1985;0.6164;0.3599;0.741
5.704000;0.2455;0.6713;0.3562;0.799
5.714000;0.2562;0.7565;0.3382;0.867
5.725000;0.2406;0.8499;0.2569;0.920
5.760000;0.1784;0.9408;0.1288;0.966
5.762000;0.0755;1.0023;-0.0459;1.006
5.763000;-0.0060;1.0610;-0.2458;1.089
5.764000;-0.0798;1.1081;-0.3165;1.155
5.774000;-0.1459;1.1081;-0.3309;1.166
5.785000;-0.2383;1.0915;-0.3189;1.162
5.794000;-0.3278;1.0516;-0.2901;1.139
5.804000;-0.4007;1.0283;-0.2218;1.126
5.814000;-0.4059;0.9776;-0.1188;1.065
5.825000;-0.4207;0.9119;-0.0074;1.004
5.856000;-0.4512;0.8814;0.1231;0.998
5.858000;-0.4876;0.8671;0.2093;1.017
5.859000;-0.5249;0.8779;0.2667;1.057
5.864000;-0.5588;0.8912;0.2140;1.073
5.875000;-0.5493;0.9119;0.1744;1.079
5.884000;-0.5232;0.9338;0.1409;1.080
5.894000;-0.5171;0.9220;0.1528;1.068
5.904000;-0.5181;0.8865;0.2150;1.049
5.914000;-0.4736;0.8157;0.4648;1.052
5.925000;-0.4065;0.8139;0.5079;1.042
5.963000;-0.3979;0.7907;0.5512;1.043
5.965000;-0.3451;0.7968;0.5361;1.020
5.966000;-0.2940;0.7651;0.5642;0.995
5.967000;-0.2161;0.7049;0.5327;0.910
5.973000;-0.1813;0.5696;0.5241;0.795
5.984000;-0.1642;0.3809;0.6568;0.777
5.994000;-0.1939;0.1696;0.8878;0.924
6.004000;-0.2468;-0.0426;1.1773;1.204
6.015000;-0.3359;-0.2468;1.3937;1.455
6.026000;-0.3798;-0.3781;1.5479;1.638
6.077000;-0.4047;-0.4178;1.6218;1.723
6.079000;-0.4206;-0.3890;1.4430;1.553
6.080000;-0.3669;-0.3088;1.1363;1.233
6.081000;-0.3180;-0.1731;0.7436;0.827
6.082000;-0.2982;-0.0597;0.4838;0.571
6.087000;-0.2639;0.0351;0.2443;0.361
6.094000;-0.0955;0.1305;0.0407;0.167
6.104000;-0.0315;0.1756;-0.0576;0.187
6.114000;-0.0362;0.1697;0.0882;0.195
6.124000;0.0454;0.2480;0.1862;0.313
6.171000;0.1995;0.2688;0.0040;0.335
6.172000;0.4213;0.2401;-0.1699;0.514
6.174000;0.6772;0.1430;-0.1071;0.700
6.174000;0.7791;0.0773;0.0991;0.789
6.175000;0.7853;-0.0361;0.3244;0.850
6.185000;0.8109;-0.2166;0.6023;1.033
6.194000;0.8391;-0.4549;0.8599;1.285
6.204000;0.8152;-0.7870;1.0001;1.511
6.214000;0.7359;-1.1212;1.0564;1.707
6.224000;0.7246;-1.4422;1.1424;1.977
6.257000;0.6612;-1.8188;1.2315;2.294
6.259000;0.5640;-2.1084;1.4721;2.633
6.260000;0.3622;-2.3538;2.0799;3.162
6.264000;0.2881;-2.2822;2.1609;3.156
6.274000;0.1964;-2.0654;2.0112;2.890
6.284000;0.1219;-1.7848;1.5067;2.339
6.294000;0.0871;-1.4350;0.7538;1.623
6.305000;0.0592;-1.1202;-0.0497;1.123
6.314000;-0.1887;-0.8368;-0.8263;1.191
6.325000;-0.4443;-0.6096;-1.5066;1.685
6.351000;-0.6560;-0.5145;-1.9055;2.080
6.352000;-0.8311;-0.5589;-2.0029;2.239
6.354000;-0.9285;-0.6615;-1.9131;2.227
6.364000;-0.9928;-0.8092;-1.5093;1.979
6.374000;-0.8814;-0.8886;-0.9627;1.579
6.384000;-0.6852;-0.9922;-0.3870;1.266
6.394000;-0.4827;-1.0838;0.2025;1.204
6.403000;-0.2843;-1.1025;0.7378;1.357
6.413000;-0.0848;-1.0226;1.0996;1.504
6.424000;0.0329;-0.9296;1.2354;1.546
6.465000;0.1359;-0.8379;1.1082;1.396
6.467000;0.2023;-0.7445;0.6802;1.029
6.468000;0.2181;-0.5736;0.1447;0.630
6.469000;0.1797;-0.3807;-0.3952;0.577
6.474000;0.1452;-0.1578;-0.8847;0.910
6.485000;0.1648;0.0909;-1.3322;1.345
6.494000;0.1542;0.2834;-1.6564;1.688
6.504000;0.1380;0.4365;-1.8610;1.917
6.514000;0.1260;0.5613;-1.9627;2.045
6.524000;0.1351;0.6592;-2.0011;2.111
6.558000;0.0964;0.7012;-1.9629;2.087
6.560000;0.0836;0.6931;-1.8267;1.956
6.561000;0.0687;0.6215;-1.6534;1.768
6.564000;0.0686;0.5356;-1.3450;1.449
6.574000;0.0351;0.4473;-0.9804;1.078
6.585000;0.0965;0.3080;-0.2328;0.398
6.594000;0.1479;0.3094;0.0418;0.345
6.604000;0.1908;0.3418;0.1931;0.436
6.614000;0.1796;0.3598;0.3109;0.508
6.624000;0.1471;0.3618;0.3594;0.531
6.663000;0.1001;0.4180;0.4080;0.593
6.664000;0.0041;0.4815;0.3754;0.611
6.666000;-0.1373;0.5811;0.2890;0.663
6.667000;-0.1953;0.7070;0.1283;0.745
6.674000;-0.2482;0.8175;-0.0860;0.859
6.685000;-0.3086;0.8605;-0.2499;0.948
6.694000;-0.3750;0.8127;-0.3574;0.964
6.704000;-0.4988;0.7312;-0.2887;0.931
6.714000;-0.6248;0.6453;-0.1242;0.907
6.724000;-0.7215;0.5513;0.1599;0.922
6.764000;-0.7486;0.4091;0.4547;0.967
6.766000;-0.8266;0.2287;0.7842;1.162
6.766000;-0.9007;0.0166;1.1146;1.433
6.767000;-0.9795;-0.1708;1.3337;1.664
6.774000;-1.1218;-0.3271;1.5024;1.903
6.785000;-1.1541;-0.3502;1.6245;2.023
6.794000;-1.0761;-0.2611;1.6450;1.983
6.804000;-0.9622;-0.2444;1.5124;1.809
6.814000;-0.9204;-0.2898;1.2686;1.594
6.826000;-0.7580;-0.3737;1.1363;1.416
6.864000;-0.4830;-0.3813;1.0909;1.253
6.866000;-0.2586;-0.3372;1.0657;1.147
6.868000;-0.1443;-0.2346;1.0553;1.091
6.869000;-0.0642;-0.1335;1.0505;1.061
6.874000;0.0595;-0.0648;1.0528;1.056
6.885000;0.2290;-0.0715;1.0536;1.081
6.894000;0.3653;-0.1901;1.0579;1.135
6.904000;0.2902;-0.5222;1.1807;1.323
6.914000;0.1631;-0.9467;1.3177;1.631
6.924000;0.0724;-1.5886;1.4895;2.179
6.975000;0.0286;-1.7720;1.6218;2.402
6.976000;-0.0395;-1.8065;1.7411;2.509
6.977000;0.0661;-1.5945;1.8462;2.440
6.978000;0.2106;-1.3817;1.6102;2.132
6.979000;0.3850;-1.2296;0.9708;1.613
6.985000;0.6999;-0.9726;0.2990;1.235
6.994000;0.9704;-0.6372;-0.2280;1.183
7.004000;0.9667;-0.3763;-0.5705;1.184
7.014000;0.8995;-0.1457;-0.9892;1.345
7.024000;0.6889;-0.1021;-1.3643;1.532
7.066000;0.4206;-0.2588;-1.4841;1.564
7.068000;0.2794;-0.5031;-1.4494;1.559
7.069000;0.0966;-0.8366;-1.1877;1.456
7.070000;-0.1232;-1.1565;-0.6825;1.349
7.074000;-0.1461;-1.3110;-0.1383;1.326
7.085000;-0.0625;-1.3846;0.4342;1.452
7.094000;0.1349;-1.3275;0.7384;1.525
7.104000;0.4379;-1.1357;0.7712;1.441
7.114000;0.6292;-0.8694;0.4380;1.159
7.125000;0.6907;-0.5653;-0.1908;0.913
7.167000;0.8893;-0.1634;-0.7404;1.169
7.169000;1.0500;0.1696;-1.3113;1.688
7.170000;1.0515;0.4493;-1.7803;2.116
7.171000;1.1073;0.6433;-2.1546;2.506
7.174000;1.1462;0.7549;-2.3984;2.763
7.185000;1.1494;0.8721;-2.4674;2.858
7.194000;1.1016;0.9522;-2.3977;2.805
7.204000;0.9618;0.9538;-2.2706;2.644
7.214000;0.7734;0.8888;-1.9750;2.300
7.224000;0.6222;0.7778;-1.6579;1.934
7.273000;0.3896;0.6003;-0.6826;0.989
7.275000;0.2822;0.2433;-0.2063;0.426
7.275000;0.2145;0.1390;0.0892;0.271
7.276000;0.1923;0.0597;0.1779;0.269
7.277000;0.2898;-0.0123;0.1662;0.334
7.286000;0.4504;-0.0349;0.1055;0.464
7.294000;0.5813;0.0199;0.1285;0.596
7.304000;0.6025;0.0848;0.1503;0.627
7.314000;0.5446;0.1496;0.1085;0.575
7.324000;0.4507;0.1788;0.0943;0.494
7.374000;0.4339;0.1764;0.0763;0.475
7.376000;0.4516;0.1755;0.1528;0.508
7.377000;0.4851;0.1079;0.2560;0.559
7.379000;0.4388;0.0028;0.4919;0.659
7.379000;0.3583;-0.0667;0.7950;0.875
7.386000;0.2826;-0.1286;1.0850;1.128
7.394000;0.2499;-0.1809;1.2948;1.331
7.404000;0.2919;-0.1933;1.4749;1.516
7.414000;0.3250;-0.1432;1.6753;1.713
7.424000;0.3201;0.0570;1.7729;1.802
7.461000;0.1847;0.3001;1.8060;1.840
7.463000;0.0247;0.4395;1.6142;1.673
7.464000;-0.0173;0.4419;1.1785;1.259
7.465000;0.0040;0.3441;0.7788;0.851
7.474000;-0.1282;0.1390;0.5072;0.541
7.484000;-0.3760;-0.1281;0.5872;0.709
7.494000;-0.5642;-0.4313;1.0644;1.280
7.504000;-0.7089;-0.9764;1.5904;1.996
7.514000;-0.7179;-1.7025;2.1558;2.839
7.524000;-0.6395;-2.2582;2.7202;3.593
7.570000;-0.6309;-2.4965;3.2598;4.154
7.572000;-0.6000;-2.4193;3.7853;4.532
7.574000;-0.6953;-2.1497;3.7987;4.420
7.576000;-0.7940;-1.7936;3.2542;3.800
7.577000;-0.6735;-1.3772;1.1678;1.927
7.584000;-0.4381;-0.4183;0.0354;0.607
7.594000;-0.6700;-0.1796;-1.1079;1.307
7.604000;-0.9114;-0.0959;-1.8586;2.072
7.614000;-1.1140;-0.1182;-2.0491;2.335
7.627000;-1.2855;-0.3127;-1.7379;2.184
7.664000;-1.3592;-0.5068;-1.2268;1.900
7.666000;-1.2514;-0.6869;-0.3706;1.475
7.668000;-0.9127;-0.8275;0.3601;1.284
7.669000;-0.6093;-0.8179;0.8901;1.354
7.674000;-0.3373;-0.7031;1.1126;1.359
7.686000;-0.1404;-0.5997;0.7603;0.978
7.694000;0.0087;-0.4161;0.1107;0.431
7.704000;0.1552;-0.1809;-0.6746;0.715
7.714000;0.1808;0.0053;-1.4494;1.461
7.724000;0.1304;0.1360;-2.0256;2.034
7.754000;0.0384;0.2568;-2.3960;2.410
7.756000;-0.0488;0.3482;-2.5868;2.611
7.758000;-0.0620;0.4625;-2.7200;2.760
7.764000;-0.0611;0.5962;-2.8651;2.927
7.774000;-0.0764;0.6580;-2.8687;2.944
7.784000;-0.0519;0.6889;-2.8424;2.925
7.794000;0.0266;0.7388;-2.8256;2.921
7.804000;0.0456;0.7077;-2.6268;2.721
7.814000;0.0580;0.5749;-2.3801;2.449
7.825000;0.0108;0.4380;-1.9777;2.026
7.874000;-0.0571;0.3166;-1.5406;1.574
7.876000;-0.1545;0.1687;-1.1286;1.152
7.878000;-0.2235;0.0500;-0.6328;0.673
7.879000;-0.1488;0.0156;-0.0471;0.157
7.879000;-0.1277;0.0243;0.5435;0.559
7.884000;-0.1252;0.0869;0.9832;0.995
7.894000;-0.1401;0.2434;1.1904;1.223
7.904000;-0.2368;0.4008;0.8204;0.943
7.914000;-0.4076;0.8840;0.4011;1.053
7.924000;-0.3771;1.1711;-0.0076;1.230
7.934000;-0.3330;1.3718;-0.2356;1.431
7.944000;-0.3398;1.4497;-0.4181;1.547
7.982000;-0.3741;1.4361;-0.3036;1.515
7.984000;-0.3969;1.3243;-0.0872;1.385
7.985000;-0.3770;1.1438;0.2563;1.231
7.987000;-0.3971;0.8482;0.7867;1.223
7.994000;-0.4604;0.4507;1.3878;1.530
8.004000;-0.5156;0.1414;2.0656;2.134
8.014000;-0.5551;-0.0804;2.6154;2.675
8.026000;-0.6138;-0.2417;3.0872;3.157
8.035000;-0.7475;-0.3897;3.2441;3.352
8.060000;-0.8618;-0.4403;3.1506;3.296
8.062000;-0.9178;-0.4738;2.9780;3.152
8.064000;-0.9270;-0.4946;2.8942;3.079
8.075000;-0.8531;-0.5769;2.8488;3.029
8.084000;-0.6692;-0.7990;2.7963;2.984
8.094000;-0.4540;-1.0628;2.6447;2.886
8.104000;-0.1115;-1.2401;2.5639;2.850
8.114000;0.1061;-1.4063;2.4505;2.827
8.124000;0.1635;-1.5483;2.1860;2.684
8.134000;0.0783;-1.6078;1.9474;2.527
8.144000;-0.0904;-1.5501;1.9144;2.465
8.186000;-0.2795;-1.3361;1.8875;2.329
8.188000;-0.3378;-1.0909;1.5985;1.965
8.190000;-0.1522;-0.8438;1.0068;1.322
8.190000;0.1393;-0.7048;0.2154;0.750
8.194000;0.4360;-0.6826;-0.6705;1.051
8.204000;0.7250;-0.6628;-1.4797;1.776
8.213000;1.0695;-0.6243;-1.9813;2.336
8.224000;1.3729;-0.6190;-1.9202;2.440
8.234000;1.5080;-0.6865;-1.3468;2.135
8.244000;1.1924;-1.0039;0.2502;1.579
8.287000;0.8919;-1.0546;0.8429;1.618
8.288000;0.4401;-1.0214;1.3461;1.746
8.289000;0.0859;-0.8980;1.2879;1.572
8.290000;-0.1941;-0.7096;0.9399;1.194
8.294000;-0.4370;-0.4901;0.3501;0.744
8.306000;-0.5729;-0.3082;-0.2923;0.713
8.314000;-0.5314;-0.1463;-0.7527;0.933
8.324000;-0.4312;0.0169;-0.9471;1.041
8.334000;-0.3508;0.1723;-1.0647;1.134
8.346000;-0.3137;0.2284;-1.2097;1.270
8.389000;-0.2332;0.2883;-1.5152;1.560
8.390000;-0.1014;0.5002;-1.8522;1.921
8.392000;-0.0281;0.6916;-2.1932;2.300
8.393000;-0.0063;0.8015;-2.5071;2.632
8.394000;0.0954;0.8965;-2.7317;2.877
8.404000;0.3188;0.9633;-2.8057;2.984
8.414000;0.5547;0.9730;-2.7588;2.978
8.426000;0.6644;0.9342;-2.5587;2.804
8.434000;0.6400;0.8931;-2.3355;2.581
8.469000;0.5724;0.8974;-1.9971;2.263
8.470000;0.4840;0.8352;-1.7052;1.959
8.472000;0.4001;0.7441;-1.3592;1.600
8.474000;0.3883;0.6516;-1.0861;1.325
8.484000;0.4467;0.5295;-0.8740;1.115
8.494000;0.5346;0.4059;-0.5769;0.885
8.504000;0.6629;0.2935;-0.3351;0.799
8.514000;0.8011;0.2409;-0.0203;0.837
8.524000;0.8673;0.2081;0.2896;0.938
8.534000;0.8938;0.2264;0.4451;1.024
8.545000;0.8692;0.2357;0.5025;1.031
8.583000;0.8071;0.1829;0.4917;0.963
8.585000;0.7180;0.0729;0.5614;0.914
8.586000;0.3933;-0.0697;0.5989;0.720
8.587000;0.1452;-0.2098;0.5840;0.637
8.594000;-0.0385;-0.3804;0.5955;0.708
8.605000;-0.0770;-0.5345;0.7231;0.902
8.614000;-0.0061;-0.5595;0.9128;1.071
8.624000;0.1039;-0.3376;1.2400;1.289
8.634000;0.2681;0.0123;1.5861;1.609
8.644000;0.3024;0.1999;1.7488;1.786
8.679000;0.5095;0.4276;1.6302;1.761
8.681000;0.7367;0.7471;1.3406;1.702
8.682000;0.6435;0.9085;1.4738;1.847
8.684000;0.0216;0.3525;2.1922;2.220
8.694000;-0.6528;-1.0165;3.2371;3.455
8.704000;-1.1085;-2.3544;4.1836;4.927
8.714000;-1.2797;-3.0336;5.1095;6.078
8.724000;-1.5394;-3.1460;5.7939;6.770
8.734000;-1.7431;-2.7050;5.9831;6.794
8.744000;-1.6827;-1.9398;5.4220;5.999
8.782000;-1.2886;-1.2672;4.0274;4.414
8.785000;-0.8512;-0.8208;2.2195;2.515
8.787000;-0.6376;-0.4285;0.4158;0.874
8.788000;-0.7162;-0.1289;-1.1449;1.357
8.794000;-0.7804;0.1371;-2.2379;2.374
8.805000;-0.8218;0.2635;-2.9484;3.072
8.814000;-0.8349;0.2023;-3.2961;3.406
8.824000;-1.0291;-0.0318;-3.2814;3.439
8.834000;-1.1764;-0.4539;-2.9538;3.212
8.844000;-0.9670;-0.7844;-2.3120;2.626
8.886000;-0.5296;-0.9725;-1.3748;1.765
8.887000;-0.3743;-1.1021;-0.7933;1.409
8.888000;-0.1843;-0.9568;-0.6134;1.151
8.889000;0.0925;-0.6789;-0.7315;1.002
8.894000;0.1973;-0.3434;-0.9818;1.059
8.905000;0.1818;-0.0866;-1.2181;1.235
8.914000;0.3043;-0.0207;-1.2713;1.307
8.926000;0.3438;0.0463;-1.2757;1.322
8.934000;0.2639;0.1553;-1.3189;1.354
8.966000;0.2016;0.2809;-1.3853;1.428
8.967000;0.1942;0.3985;-1.4507;1.517
8.971000;0.1972;0.5203;-1.4795;1.581
8.974000;0.1865;0.5947;-1.5173;1.640
8.984000;0.1280;0.5951;-1.4278;1.552
8.994000;0.0712;0.5091;-1.2328;1.336
9.005000;0.0538;0.4436;-0.9814;1.078
9.014000;0.0810;0.4593;-0.7312;0.867
9.027000;0.0383;0.4547;-0.4104;0.614
9.034000;-0.0174;0.4274;-0.1400;0.450
9.062000;0.0082;0.4410;0.1219;0.458
9.064000;0.0226;0.4683;0.2352;0.525
9.065000;-0.0439;0.4295;0.1964;0.474
9.075000;-0.1086;0.4070;0.1336;0.442
9.083000;-0.1489;0.4071;0.0566;0.437
9.094000;-0.1432;0.4852;-0.1700;0.534
9.105000;-0.1198;0.5831;-0.3403;0.686
9.114000;-0.0587;0.6918;-0.5680;0.897
9.124000;-0.0163;0.8072;-0.6497;1.036
9.134000;-0.0652;0.8269;-0.7207;1.099
9.144000;-0.0744;0.8156;-0.7415;1.105
9.195000;-0.0168;0.8029;-0.4750;0.933
9.197000;-0.0737;0.7440;-0.1941;0.772
9.198000;-0.1326;0.5927;0.1599;0.628
9.199000;-0.2082;0.4321;0.4708;0.672
9.200000;-0.2708;0.2564;0.8811;0.957
9.205000;-0.4080;0.0684;1.2484;1.315
9.214000;-0.4733;-0.0644;1.4697;1.545
9.224000;-0.5078;-0.0565;1.6337;1.712
9.234000;-0.5439;0.0464;1.8289;1.909
9.245000;-0.7391;-0.0366;1.7537;1.903
9.286000;-0.5433;-0.3223;1.5219;1.648
9.288000;-0.2983;-0.3998;1.4232;1.508
9.288000;-0.2324;-0.3859;1.5066;1.573
9.289000;-0.1389;-0.4555;1.5507;1.622
9.294000;-0.0962;-0.5193;1.6212;1.705
9.305000;-0.0511;-0.6687;1.9129;2.027
9.314000;-0.1234;-0.8309;2.5597;2.694
9.324000;-0.1791;-0.8534;3.5028;3.610
9.334000;-0.2771;-0.8275;4.2995;4.387
9.346000;-0.3735;-0.8131;4.5347;4.622
9.379000;-0.3122;-0.7022;3.9523;4.026
9.382000;-0.1066;-0.4684;2.7451;2.787
9.383000;0.0544;-0.2773;1.5525;1.578
9.385000;0.3134;-0.1724;0.2821;0.456
9.394000;0.5660;-0.1405;-0.9510;1.116
9.406000;0.7613;-0.2336;-1.9003;2.060
9.414000;1.0094;-0.3731;-2.3790;2.611
9.424000;1.1518;-0.5784;-2.3789;2.706
9.434000;1.1608;-0.8113;-1.8485;2.329
9.444000;1.0532;-1.0070;-1.0046;1.770
9.493000;0.7917;-1.0783;-0.1808;1.350
9.495000;0.4768;-1.1101;0.3463;1.257
9.496000;0.2100;-1.0462;0.5695;1.210
9.498000;0.1508;-0.8403;0.4408;0.961
9.498000;0.2484;-0.5347;0.0006;0.590
9.505000;0.2787;-0.2346;-0.6540;0.749
9.514000;0.2319;0.0260;-1.3266;1.347
9.524000;0.2221;0.3339;-1.8556;1.898
9.534000;0.1264;0.5932;-2.2576;2.338
9.545000;0.0286;0.7922;-2.4741;2.598
9.586000;-0.1321;0.9403;-2.6463;2.812
9.588000;-0.3053;1.0571;-2.6822;2.899
9.590000;-0.3948;1.1518;-2.5278;2.806
9.591000;-0.2968;1.0763;-2.3016;2.558
9.594000;-0.1256;1.0230;-1.9354;2.193
9.607000;0.0519;1.0239;-1.5596;1.866
9.614000;0.1151;1.0132;-1.3203;1.668
9.624000;0.1782;0.9787;-0.9791;1.396
9.634000;0.3057;0.9456;-0.7277;1.232
9.645000;0.3918;0.9101;-0.5134;1.116
9.678000;0.4284;0.8652;-0.4026;1.046
9.680000;0.5039;0.7837;-0.3383;0.991
9.680000;0.6722;0.7238;-0.1304;0.996
9.684000;0.7752;0.6059;0.1290;0.992
9.694000;0.8696;0.5182;0.4529;1.109
9.704000;0.9400;0.4512;0.6356;1.221
9.714000;0.9379;0.4200;0.6760;1.230
9.729000;0.9054;0.4165;0.6642;1.198
9.734000;0.8405;0.3589;0.5475;1.065
9.764000;0.6261;0.2732;0.5175;0.857
9.766000;0.3485;0.1742;0.5845;0.702
9.766000;0.0034;-0.0242;0.7913;0.792
9.774000;-0.2543;-0.1687;1.1593;1.199
9.784000;-0.3172;-0.3067;1.4683;1.533
9.795000;-0.3459;-0.5097;1.7688;1.873
9.804000;-0.3221;-0.5855;2.0776;2.182
9.814000;-0.1571;-0.4495;2.3863;2.433
9.827000;0.0309;-0.2208;2.6736;2.683
9.834000;0.0380;-0.1362;2.5755;2.579
9.871000;0.0630;-0.1139;2.2755;2.279
9.873000;0.1691;-0.0756;1.8212;1.831
9.874000;0.1808;-0.0629;1.5069;1.519
9.875000;0.0809;-0.2236;1.4713;1.490
9.884000;0.0638;-0.6155;1.5072;1.629
9.894000;0.0712;-1.1828;1.6767;2.053
9.904000;-0.0233;-2.5833;3.1350;4.062
9.914000;-0.1167;-2.9634;3.8747;4.879
9.932000;-0.2128;-2.9204;4.4877;5.358
9.936000;-0.2835;-2.6062;4.6606;5.347
9.981000;-0.3840;-2.1851;4.1243;4.683
9.983000;-0.3723;-1.5816;3.0856;3.487
9.985000;-0.2803;-1.0070;1.6662;1.967
9.986000;-0.1656;-0.5196;0.3353;0.640
9.988000;-0.1530;-0.1824;-0.9323;0.962
9.994000;-0.1138;0.0053;-1.8994;1.903
10.006000;-0.3977;0.0412;-2.6057;2.636
10.014000;-0.6162;0.0202;-2.9625;3.026
10.024000;-0.8743;-0.1601;-2.9881;3.118
10.034000;-0.9687;-0.3746;-2.5102;2.717
10.047000;-0.9361;-0.6460;-1.6592;2.012
10.054000;-0.7332;-0.8841;-0.8729;1.443
10.085000;-0.4783;-0.9570;-0.1583;1.082
10.086000;-0.2267;-0.8461;0.2588;0.913
10.088000;-0.0449;-0.6749;0.3005;0.740
10.094000;0.0965;-0.4523;0.1187;0.478
10.106000;0.2158;-0.1999;-0.2463;0.384
10.114000;0.2022;0.0763;-0.7777;0.807
10.124000;0.0971;0.2955;-1.3774;1.412
10.134000;-0.0271;0.4326;-1.9316;1.980
10.144000;-0.1782;0.5457;-2.2823;2.353
10.155000;-0.3370;0.5577;-2.5288;2.611
10.183000;-0.3474;0.6735;-2.7263;2.830
10.185000;-0.2529;0.7977;-2.8161;2.938
10.186000;-0.2097;0.8073;-2.8150;2.936
10.195000;-0.2076;0.7629;-2.5912;2.709
10.204000;-0.2217;0.6833;-2.1566;2.273
10.214000;-0.3194;0.5365;-1.6776;1.790
10.228000;-0.2013;0.2405;-0.8143;0.873
10.234000;-0.1235;0.1430;-0.6441;0.671
10.262000;-0.1411;0.1666;-0.6823;0.716
10.264000;-0.2192;0.1969;-0.8726;0.921
10.265000;-0.2708;0.1875;-0.9983;1.051
10.274000;-0.2765;0.2154;-0.9289;0.993
10.284000;-0.2661;0.2744;-0.7074;0.804
10.294000;-0.3172;0.3158;-0.3840;0.590
10.304000;-0.4501;0.3193;-0.0534;0.554
10.314000;-0.5442;0.3553;0.1647;0.670
10.328000;-0.5715;0.4290;0.3648;0.802
10.334000;-0.6050;0.4616;0.4488;0.883
10.360000;-0.6991;0.4917;0.6332;1.064
10.361000;-0.7135;0.5555;0.8272;1.226
10.364000;-0.7124;0.6124;0.9600;1.343
10.374000;-0.6886;0.6601;1.0353;1.408
10.384000;-0.6236;0.6515;0.9681;1.323
10.394000;-0.5502;0.5551;0.9368;1.220
10.404000;-0.5250;0.3157;0.8241;1.027
10.414000;-0.5554;-0.0465;0.7954;0.971
10.427000;-0.5724;-0.5392;0.9692;1.248
10.434000;-0.6015;-0.9584;1.2797;1.708
10.456000;-0.8009;-1.2739;1.8323;2.371
10.458000;-0.7655;-1.4234;2.3791;2.876
10.463000;-0.5026;-1.4545;2.8899;3.274
10.474000;-0.0217;-1.2772;3.1108;3.363
10.483000;0.2819;-0.9409;3.0595;3.213
10.494000;0.6451;-0.3772;2.6665;2.769
10.504000;0.6346;-0.1169;2.0084;2.109
10.513000;0.5302;-0.1394;1.3345;1.443
10.527000;0.4697;-0.2495;1.0543;1.181
10.538000;0.0918;-0.4636;1.2820;1.366
10.552000;-0.3169;-0.6629;1.6309;1.789
10.554000;-0.6260;-0.8241;2.0617;2.307
10.564000;-0.3541;-0.6182;2.0690;2.188
10.574000;-0.2201;-0.3876;1.3248;1.398
10.583000;-0.0764;-0.1849;0.5412;0.577
10.594000;0.1616;0.0724;-0.1682;0.244
10.604000;0.3831;0.2010;-0.8598;0.962
10.614000;0.4963;0.1852;-1.4654;1.558
10.627000;0.4067;0.0937;-1.8066;1.854
10.635000;0.1294;-0.1123;-1.7301;1.739
10.659000;-0.0712;-0.3842;-1.3543;1.410
10.660000;-0.0240;-0.6513;-0.8346;1.059
10.664000;0.0001;-0.9743;-0.2558;1.007
10.674000;0.0765;-1.1764;0.2708;1.210
10.684000;0.1494;-1.2221;0.7416;1.437
10.694000;0.1457;-1.1496;0.9863;1.522
10.704000;0.0122;-1.0076;1.0179;1.432
10.713000;-0.1675;-0.8112;0.6970;1.083
10.731000;-0.2424;-0.5037;0.1253;0.573
10.736000;-0.2206;-0.1763;-0.5441;0.613
10.785000;-0.1433;0.1262;-1.1421;1.158
10.787000;-0.0182;0.4364;-1.6279;1.685
10.788000;0.0769;0.7336;-2.0047;2.136
10.790000;0.1416;0.9236;-2.3707;2.548
10.792000;0.2051;1.0689;-2.5618;2.783
10.794000;0.2783;1.1804;-2.6294;2.896
10.804000;0.3305;1.2075;-2.6011;2.887
10.814000;0.3327;1.1347;-2.4278;2.700
10.831000;0.3400;1.0425;-2.1766;2.437
10.836000;0.3478;0.9491;-1.8247;2.086
10.883000;0.3921;0.8725;-1.4285;1.719
10.885000;0.4322;0.8307;-1.1807;1.507
10.886000;0.4596;0.7934;-1.0923;1.426
10.887000;0.5282;0.7496;-1.0649;1.405
10.888000;0.6298;0.7174;-1.0183;1.396
10.894000;0.7120;0.6187;-0.6084;1.122
10.904000;1.0184;0.3906;-0.3715;1.152
10.914000;1.0302;0.2354;-0.1617;1.069
10.929000;0.9556;0.0969;0.0904;0.965
10.934000;0.8756;0.0207;0.3536;0.945
10.969000;0.7813;0.0042;0.7009;1.050
10.970000;0.7303;-0.0426;1.0029;1.241
10.972000;0.6435;-0.1017;1.1540;1.325
10.974000;0.5583;-0.1256;1.2212;1.349
10.984000;0.4473;-0.1617;1.2079;1.298
10.996000;0.2805;-0.2450;1.1728;1.230
11.004000;0.0494;-0.3446;1.0859;1.140
11.014000;-0.0871;-0.3981;1.0767;1.151
11.030000;-0.1799;-0.4005;1.1264;1.209
11.034000;-0.3018;-0.3141;1.1646;1.243
11.068000;-0.2678;-0.1722;1.1364;1.180
11.069000;-0.0768;-0.0004;1.0830;1.086
11.070000;0.0110;-0.0327;0.8394;0.840
11.080000;0.1016;-0.0293;0.6662;0.675
11.084000;0.1856;-0.2332;0.7331;0.791
11.094000;0.2192;-0.6733;0.9566;1.190
11.104000;0.2838;-1.3265;0.9432;1.652
11.114000;0.0985;-2.0902;1.1346;2.380
11.131000;-0.4059;-2.7496;1.5962;3.205
11.136000;-0.8429;-2.9281;2.2254;3.773
11.183000;-0.9524;-2.6528;2.7233;3.919
11.186000;-0.7383;-2.1534;2.7936;3.604
11.188000;-0.6314;-1.7032;2.6523;3.215
11.190000;-0.4670;-1.1796;2.5255;2.826
11.191000;-0.1523;-0.7171;1.9750;2.107
11.194000;-0.1914;-0.4302;1.1338;1.228
11.204000;-0.4035;-0.2759;0.2290;0.540
11.214000;-0.7121;-0.2277;-0.6140;0.967
11.230000;-1.1196;-0.2508;-1.0222;1.537
11.235000;-1.7117;-0.6863;-0.6723;1.963
11.273000;-1.6430;-0.9473;-0.0026;1.896
11.276000;-1.4355;-1.1189;0.5878;1.913
11.276000;-1.1434;-1.1859;0.9947;1.924
11.277000;-0.8451;-1.0564;1.2874;1.867
11.284000;-0.6947;-0.8918;1.1835;1.637
11.294000;-0.6585;-0.6209;0.8713;1.256
11.304000;-0.6177;-0.2868;0.3514;0.766
11.315000;-0.5520;0.0452;-0.2896;0.625
11.330000;-0.4892;0.3476;-0.9186;1.097
11.334000;-0.5279;0.5773;-1.5198;1.709
11.371000;-0.6208;0.7524;-2.0750;2.293
11.373000;-0.6244;0.9034;-2.4735;2.706
11.374000;-0.5995;1.0177;-2.7055;2.952
11.376000;-0.6514;1.1165;-2.7410;3.030
11.384000;-0.6239;1.2089;-2.6887;3.013
11.394000;-0.5674;1.2568;-2.5286;2.880
11.404000;-0.5373;1.2651;-2.2905;2.671
11.414000;-0.5041;1.2485;-1.9963;2.408
11.431000;-0.4922;1.1678;-1.6877;2.111
11.435000;-0.4098;1.0394;-1.2812;1.700
11.471000;-0.3234;0.9211;-0.8713;1.309
11.472000;-0.2916;0.7947;-0.5382;1.003
11.473000;-0.2428;0.7112;-0.2903;0.806
11.475000;-0.2371;0.6079;-0.1023;0.660
11.484000;-0.1179;0.4697;0.1297;0.501
11.495000;-0.0127;0.3719;0.3636;0.520
11.504000;0.0262;0.2980;0.6111;0.680
11.515000;0.0163;0.2486;0.8241;0.861
11.534000;-0.0439;0.2312;0.9199;0.950
11.536000;-0.1017;0.2561;0.8792;0.921
11.576000;-0.1309;0.3029;0.7487;0.818
11.577000;-0.0357;0.4939;0.3908;0.631
11.578000;0.1025;0.5818;0.2353;0.636
11.579000;0.1831;0.6428;0.0129;0.669
11.584000;0.2097;0.6997;-0.0715;0.734
11.594000;0.2244;0.7641;0.0049;0.796
11.604000;0.2184;0.7345;0.1632;0.783
11.614000;0.0885;0.5802;0.4309;0.728
11.630000;-0.1713;0.3301;0.7037;0.796
11.634000;-0.5285;0.0220;1.0489;1.175
11.671000;-0.9099;-0.4259;1.3094;1.650
11.672000;-1.0543;-0.6803;1.5178;1.969
11.674000;-0.9626;-0.4503;1.5640;1.891
11.675000;-0.8628;-0.1254;1.5702;1.796
11.684000;-0.5491;-0.0588;1.5571;1.652
11.694000;-0.2210;-0.0851;1.7348;1.751
11.704000;-0.0681;-0.1162;2.0848;2.089
11.714000;-0.1979;-0.3629;2.5441;2.577
11.731000;-0.3966;-0.9879;2.9385;3.125
11.734000;-0.4830;-1.7109;3.2973;3.746
11.773000;-0.2981;-2.1375;3.7790;4.352
11.775000;-0.0328;-2.2584;3.9843;4.580
11.776000;0.0906;-2.0747;4.0378;4.541
11.778000;0.0593;-1.7281;3.4563;3.865
11.784000;0.0415;-1.2792;2.3380;2.665
11.794000;0.0859;-0.8091;0.9854;1.278
11.804000;0.2521;-0.3742;-0.0761;0.458
11.814000;0.2884;-0.0539;-0.8609;0.910
11.830000;0.2354;-0.0181;-1.4603;1.479
11.835000;0.2057;-0.1663;-1.7367;1.757
11.878000;0.2599;-0.3977;-1.6376;1.705
11.880000;0.3553;-0.6519;-1.2202;1.428
11.881000;0.4607;-0.9133;-0.6053;1.189
11.882000;0.4566;-1.2008;0.0579;1.286
11.884000;0.4073;-1.3717;0.4450;1.498
11.894000;0.2049;-1.2179;0.4470;1.313
11.904000;0.0606;-1.0326;0.0016;1.034
11.915000;-0.1369;-0.8703;-0.4052;0.970
11.924000;-0.2611;-0.6497;-0.6263;0.939
11.935000;-0.2022;-0.3458;-0.9575;1.038
11.982000;-0.3354;0.0027;-0.9897;1.045
11.984000;-0.4413;0.2573;-1.0588;1.176
11.986000;-0.5101;0.4719;-1.2768;1.454
11.986000;-0.6209;0.7316;-1.3741;1.676
11.987000;-0.7115;0.9281;-1.6069;1.987
11.994000;-0.7875;1.1015;-1.9237;2.352
12.004000;-0.7042;1.2547;-2.3505;2.756
12.015000;-0.5859;1.4080;-2.6312;3.041
12.024000;-0.4967;1.4020;-2.6387;3.029
12.035000;-0.4134;1.2711;-2.5968;2.921
12.076000;-0.2769;1.2347;-2.2852;2.612
12.078000;-0.1718;1.0990;-1.8549;2.163
12.079000;0.0090;0.9840;-1.3740;1.690
12.080000;0.0790;0.8299;-0.9062;1.231
12.084000;0.0810;0.6730;-0.6313;0.926
12.094000;0.1603;0.4974;-0.4168;0.668
12.104000;0.2540;0.3219;-0.1128;0.425
12.114000;0.3304;0.1094;0.2448;0.426
12.124000;0.4127;-0.0561;0.4885;0.642
12.135000;0.5109;-0.1323;0.5694;0.776
12.170000;0.6232;-0.1429;0.5462;0.841
12.172000;0.6762;-0.1508;0.5521;0.886
12.172000;0.6691;-0.1626;0.5246;0.866
12.176000;0.6455;-0.2166;0.6028;0.909
12.184000;0.6693;-0.2980;0.7025;1.015
12.195000;0.6420;-0.4266;0.8861;1.174
12.204000;0.5786;-0.5989;1.0994;1.379
12.214000;0.4744;-0.8157;1.3688;1.663
12.224000;0.4525;-0.9526;1.8739;2.150
12.235000;0.6379;-0.6410;1.9540;2.153
12.270000;0.6386;-0.4759;1.8833;2.045
12.271000;0.6188;-0.3423;1.6691;1.813
12.272000;0.6413;-0.2393;1.5063;1.655
12.279000;0.5605;-0.2392;1.4392;1.563
12.284000;0.3942;-0.4084;1.5896;1.688
12.294000;0.0873;-0.7937;1.9633;2.119
12.304000;-0.2539;-1.3869;2.5100;2.879
12.314000;-0.5016;-1.9923;3.0973;3.717
12.324000;-0.7271;-2.3816;3.5923;4.371
12.335000;-0.5748;-2.2033;3.7716;4.406
12.372000;-0.4568;-1.7701;3.5958;4.034
12.374000;-0.5655;-1.3483;2.7131;3.082
12.376000;-0.4958;-0.7378;1.4081;1.665
12.377000;-0.3311;-0.1676;0.0723;0.378
12.384000;-0.4921;0.1682;-1.0800;1.199
12.394000;-0.4024;0.5836;-1.9569;2.081
12.404000;-0.6564;0.6444;-2.4292;2.598
12.416000;-0.9957;0.4037;-2.8058;3.005
12.424000;-1.2441;0.1093;-2.7416;3.013
12.435000;-1.2948;-0.1899;-2.1054;2.479
12.471000;-1.1538;-0.5252;-1.3139;1.826
12.473000;-0.9554;-0.8418;-0.6575;1.433
12.474000;-0.7384;-1.0158;-0.1625;1.266
12.475000;-0.4749;-1.0183;0.1665;1.136
12.484000;-0.3408;-0.9571;0.2408;1.044
12.494000;-0.3401;-0.8706;0.0411;0.936
12.504000;-0.3414;-0.7243;-0.2854;0.850
12.514000;-0.2883;-0.5325;-0.6514;0.889
12.524000;-0.1890;-0.2758;-1.0187;1.072
12.534000;-0.0550;-0.0120;-1.5250;1.526
12.548000;0.0193;0.2336;-2.0217;2.035
12.555000;0.1237;0.6654;-2.9076;2.985
12.594000;0.1616;0.8049;-3.1565;3.262
12.597000;0.1429;0.8925;-3.2116;3.336
12.598000;0.1367;0.9674;-3.1145;3.264
12.600000;0.1739;0.9993;-2.8032;2.981
12.604000;0.1398;0.9076;-2.2896;2.467
12.614000;0.0759;0.6929;-1.6049;1.750
12.624000;-0.0339;0.4580;-0.8483;0.965
12.634000;-0.1687;0.2050;-0.0809;0.278
12.648000;-0.3360;-0.0611;0.6830;0.764
12.654000;-0.4016;-0.2591;1.2938;1.379
12.695000;-0.3470;-0.3178;1.6330;1.699
12.697000;-0.2909;-0.2576;1.8405;1.881
12.699000;-0.3092;-0.2519;1.7656;1.810
12.700000;-0.2319;-0.0856;1.3794;1.401
12.704000;-0.1738;0.2843;1.0899;1.140
12.714000;-0.1983;0.5155;0.7308;0.916
12.724000;-0.2520;0.6879;0.4410;0.855
12.734000;-0.2369;0.9343;0.2289;0.991
12.748000;-0.2002;1.1029;0.0264;1.121
12.754000;-0.1912;1.1587;-0.0683;1.176
12.792000;-0.1655;1.1018;0.0155;1.114
12.794000;-0.1420;0.8869;0.3305;0.957
12.795000;-0.1628;0.5342;0.8443;1.012
12.796000;-0.2651;0.1595;1.6072;1.637
12.804000;-0.3464;-0.1306;2.1524;2.184
12.814000;-0.4152;-0.2137;2.3301;2.376
12.824000;-0.4560;-0.1625;2.2636;2.315
12.834000;-0.4643;-0.1352;1.9829;2.041
12.848000;-0.4013;-0.2223;1.5908;1.656
12.854000;-0.2838;-0.4065;1.3937;1.479
12.881000;-0.0428;-0.5024;1.4932;1.576
12.883000;0.2077;-0.5702;1.7160;1.820
12.884000;0.2781;-1.1115;2.4809;2.733
12.894000;0.2453;-1.3838;2.7084;3.051
12.904000;0.2788;-1.5060;2.8451;3.231
12.914000;0.3853;-1.4500;2.8921;3.258
12.924000;0.4723;-1.2771;2.6339;2.965
12.934000;0.4934;-0.9952;2.0808;2.359
12.948000;0.5579;-0.6930;1.3572;1.623
12.954000;0.6879;-0.4318;0.5947;1.007
12.980000;0.9251;-0.2492;-0.1800;0.975
12.981000;1.1203;-0.1594;-0.6602;1.310
12.984000;1.2232;-0.1896;-0.9439;1.557
12.995000;1.2831;-0.2292;-1.1149;1.715
13.004000;1.3473;-0.3253;-1.0773;1.755
13.014000;1.2805;-0.4555;-0.8957;1.628
13.024000;1.1090;-0.6235;-0.5236;1.376
13.036000;0.8452;-0.7893;-0.2553;1.184
13.048000;0.5642;-0.9088;-0.1891;1.086
13.054000;0.3752;-0.9254;-0.2976;1.042
13.087000;0.2197;-0.8737;-0.5783;1.071
13.089000;0.0670;-0.6941;-0.8913;1.132
13.090000;0.0489;-0.3956;-1.1842;1.250
13.094000;0.0714;-0.1255;-1.5743;1.581
13.104000;0.1440;0.1302;-1.8915;1.901
13.115000;0.1726;0.3268;-2.0770;2.110
13.124000;0.1383;0.5361;-2.2842;2.350
13.134000;0.1154;0.7386;-2.4794;2.590
13.148000;0.0878;0.8847;-2.6362;2.782
13.154000;0.0857;1.0100;-2.7381;2.920
13.180000;0.0679;1.1062;-2.7824;2.995
13.182000;-0.0018;1.1469;-2.7153;2.948
13.184000;-0.0389;1.1288;-2.6051;2.839
13.194000;-0.0788;1.0665;-2.3428;2.575
13.204000;-0.0954;0.9580;-1.9559;2.180
13.214000;-0.0903;0.8442;-1.5031;1.726
13.224000;-0.1512;0.5498;-0.6253;0.846
13.234000;-0.1687;0.3727;-0.2346;0.472
13.249000;-0.1101;0.2431;0.0293;0.268
13.254000;0.0164;0.1964;0.2536;0.321
13.290000;0.1966;0.1768;0.4083;0.486
13.291000;0.3953;0.1873;0.5807;0.727
13.292000;0.5176;0.2758;0.6930;0.908
13.294000;0.5739;0.3854;0.7044;0.987
13.304000;0.6774;0.4933;0.6581;1.066
13.314000;0.7275;0.5547;0.6081;1.098
13.323000;0.7853;0.6034;0.7460;1.240
13.334000;0.7778;0.5012;0.8948;1.287
13.349000;0.6724;0.3973;1.1337;1.377
13.354000;0.5135;0.3070;1.3451;1.472
13.400000;0.2974;0.2648;1.4934;1.546
13.402000;0.0856;0.2461;1.5280;1.550
13.402000;-0.0406;0.3346;1.4945;1.532
13.404000;-0.0960;0.4369;1.4133;1.482
13.405000;-0.1081;0.4384;1.2458;1.325
13.414000;-0.1674;0.2461;1.1047;1.144
13.424000;-0.2094;-0.0090;0.9981;1.020
13.434000;-0.3506;-0.2132;1.1992;1.267
13.449000;-0.5331;-0.3681;1.6312;1.755
13.455000;-0.6750;-0.6565;2.1410;2.339
13.499000;-0.6616;-1.0369;2.5504;2.831
13.501000;-0.5872;-1.4398;2.8713;3.265
13.503000;-0.6075;-1.7411;3.1995;3.693
13.504000;-0.5025;-1.8433;3.4847;3.974
13.505000;-0.4242;-1.6788;3.6560;4.045
13.514000;-0.3913;-1.3197;3.3232;3.597
13.524000;-0.3811;-0.9184;2.7028;2.880
13.534000;-0.3625;-0.4609;1.6430;1.744
13.550000;-0.3635;-0.1072;0.4887;0.618
13.554000;-0.8042;0.3235;-1.7161;1.923
13.591000;-1.1727;0.2163;-2.3942;2.675
13.594000;-1.5058;-0.0365;-2.4852;2.906
13.595000;-1.6031;-0.2803;-2.1547;2.700
13.596000;-1.5059;-0.5470;-1.2222;2.015
13.604000;-1.1161;-0.9359;-0.0769;1.459
13.615000;-0.7348;-1.1052;0.7966;1.548
13.624000;-0.3472;-1.0411;1.5049;1.863
13.634000;-0.1237;-0.7895;1.7332;1.909
13.652000;-0.0821;-0.4520;1.2659;1.347
13.690000;-0.0702;-0.0443;0.2536;0.267
13.691000;0.0139;0.5560;-1.7620;1.848
13.693000;0.1334;0.7526;-2.5752;2.686
13.694000;0.3074;0.9345;-3.0801;3.233
13.704000;0.3238;0.9847;-3.2221;3.385
13.714000;0.3096;1.0307;-3.1653;3.343
13.724000;0.2428;1.0722;-2.9490;3.147
13.734000;0.2101;1.1310;-2.7913;3.019
13.750000;0.1636;1.1956;-2.6935;2.951
13.754000;0.1771;1.2446;-2.7034;2.981
13.793000;0.2033;1.2546;-2.6380;2.928
13.795000;0.1854;1.2225;-2.5210;2.808
13.797000;0.1071;1.1424;-2.2568;2.532
13.799000;-0.0116;1.0709;-1.9147;2.194
13.804000;-0.1130;0.9831;-1.4911;1.790
13.814000;-0.1546;0.8741;-1.1153;1.425
13.824000;-0.1949;0.7956;-0.6496;1.045
13.835000;-0.1896;0.7464;-0.2066;0.797
13.851000;-0.2313;0.7036;0.2365;0.777
13.856000;-0.2650;0.6928;0.6280;0.972
13.897000;-0.3245;0.7386;0.9297;1.231
13.899000;-0.3607;0.7975;1.1271;1.427
13.899000;-0.2728;0.8534;1.3651;1.633
13.900000;-0.1923;0.8202;1.3983;1.633
13.904000;-0.1123;0.7990;1.4411;1.652
13.915000;-0.0846;0.7232;1.4755;1.645
13.924000;-0.0909;0.4933;1.5818;1.659
13.934000;-0.1002;0.1397;1.6943;1.703
13.951000;-0.1693;-0.1921;1.9038;1.921
13.956000;-0.2411;-0.2582;2.2404;2.268
13.996000;-0.2798;-0.1974;2.4908;2.514
13.998000;-0.3047;-0.1314;2.4696;2.492
14.000000;-0.2622;-0.0528;2.1803;2.197
14.001000;-0.1155;0.0551;1.9065;1.911
14.004000;-0.1048;0.0102;1.6902;1.693
14.014000;-0.2113;-0.3335;1.7383;1.783
14.024000;-0.3171;-0.9157;2.1726;2.379
14.035000;-0.3018;-1.5567;2.9621;3.360
14.050000;-0.1442;-2.0443;3.8472;4.359
14.054000;-0.1432;-2.3281;4.2453;4.844
14.089000;-0.1866;-2.3043;4.1661;4.765
14.091000;-0.1261;-1.9466;3.4682;3.979
14.094000;-0.0765;-1.4559;2.2902;2.715
14.096000;0.0315;-1.0920;1.0535;1.518
14.104000;0.3443;-0.7416;0.0001;0.818
14.114000;0.6115;-0.4735;-0.7625;1.086
14.124000;0.7447;-0.3145;-1.1192;1.381
14.135000;0.8570;-0.3906;-1.1048;1.452
14.150000;0.8823;-0.6651;-0.6726;1.293
14.155000;0.7581;-0.9709;0.0016;1.232
14.187000;0.4310;-1.2272;0.7645;1.509
14.188000;0.1747;-1.3887;1.2595;1.883
14.189000;0.0596;-1.4074;1.3116;1.925
14.196000;-0.0064;-1.2248;1.0582;1.619
14.204000;-0.1230;-0.9917;0.5377;1.135
14.214000;-0.2039;-0.7233;-0.9395;1.203
14.224000;-0.2239;-0.0640;-1.5802;1.597
14.234000;-0.3429;0.2050;-2.1695;2.206
14.252000;-0.4372;0.4305;-2.5996;2.671
14.255000;-0.4369;0.6772;-2.9506;3.059
14.283000;-0.4627;0.8792;-3.2213;3.371
14.286000;-0.5256;1.0293;-3.3698;3.563
14.287000;-0.5528;1.0918;-3.5268;3.733
14.295000;-0.4427;1.1434;-3.4682;3.679
14.304000;-0.3629;1.1139;-3.2097;3.417
14.314000;-0.2286;1.0161;-2.8865;3.069
14.324000;-0.0213;0.8896;-2.4748;2.630
14.334000;0.1181;0.7369;-2.1492;2.275
14.354000;0.1634;0.6096;-1.8223;1.929
14.357000;0.2315;0.5279;-1.5374;1.642
14.392000;0.2749;0.4686;-1.2979;1.407
14.394000;0.3447;0.3795;-1.0572;1.175
14.395000;0.4435;0.2666;-0.7663;0.925
14.396000;0.5922;0.1795;-0.4682;0.776
14.404000;0.7234;0.0971;-0.1725;0.750
14.414000;0.8494;0.0638;0.1100;0.859
14.424000;0.9319;0.0626;0.3962;1.015
14.435000;1.0160;0.0676;0.6430;1.204
14.444000;1.0489;0.1134;0.8157;1.334
14.455000;1.0536;0.1449;0.8126;1.338
14.486000;0.8604;0.0765;0.8107;1.185
14.488000;0.8376;0.0763;0.9143;1.242
14.489000;0.6886;-0.0620;1.0728;1.276
14.496000;0.4410;-0.2064;1.2479;1.340
14.504000;0.2582;-0.2146;1.5162;1.553
14.514000;0.1060;-0.1794;1.7425;1.755
14.524000;-0.0014;-0.2076;1.9616;1.973
14.534000;-0.0268;-0.2957;2.0321;2.054
14.544000;-0.0757;-0.3577;2.3719;2.400
14.555000;-0.0476;-0.9791;2.6746;2.849
14.601000;0.0279;-1.7927;3.0693;3.555
14.602000;-0.2227;-2.7273;3.7128;4.612
14.604000;-0.6103;-3.2537;4.5348;5.615
14.605000;-0.8224;-3.1323;5.1174;6.056
14.607000;-1.0102;-2.5334;5.3482;6.003
14.614000;-0.8920;-1.7406;4.6200;5.017
14.624000;-0.5170;-1.0678;3.1842;3.398
14.634000;-0.0576;-0.4458;1.6167;1.678
14.644000;0.1110;0.1546;0.1427;0.238
14.655000;0.0287;0.4653;-1.2365;1.321
14.665000;-0.1671;0.4947;-2.3017;2.360
14.674000;-0.5261;0.2741;-2.8028;2.865
14.684000;-0.9214;0.2635;-2.5148;2.691
14.694000;-1.1451;-0.4817;-1.6939;2.101
14.704000;-1.1134;-0.8768;-0.5557;1.522
14.714000;-0.8461;-1.2108;0.2679;1.501
14.724000;-0.5448;-1.3464;0.7444;1.632
14.734000;-0.2441;-1.2792;0.8809;1.572
14.744000;-0.1082;-1.0526;0.7019;1.270
14.755000;-0.0344;-0.7675;0.2517;0.808
14.784000;0.0385;-0.3867;-0.3629;0.532
14.786000;0.0656;-0.0033;-1.1274;1.129
14.787000;0.0802;0.3055;-1.9244;1.950
14.794000;0.1581;0.5598;-2.6042;2.668
14.804000;0.2495;0.7766;-3.0804;3.187
14.814000;0.3529;0.9014;-3.3411;3.479
14.824000;0.4387;0.9719;-3.3873;3.551
14.834000;0.5037;0.9895;-3.2573;3.441
14.844000;0.4773;0.9909;-2.9427;3.142
14.855000;0.4112;0.9314;-2.6663;2.854
14.889000;0.1977;0.8621;-2.3180;2.481
14.891000;0.0426;0.7378;-1.9469;2.082
14.891000;-0.0824;0.5394;-1.7553;1.838
14.894000;-0.1651;0.4304;-1.4787;1.549
14.904000;-0.2443;0.2947;-1.1494;1.211
14.915000;-0.3123;0.1855;-0.7805;0.861
14.924000;-0.3788;0.0633;-0.4008;0.555
14.934000;-0.3955;-0.0254;-0.0378;0.398
14.951000;-0.3900;-0.0316;0.2031;0.441
14.955000;-0.4497;0.0441;0.4010;0.604
14.998000;-0.4655;0.1880;0.4168;0.652
15.000000;-0.4484;0.4011;0.3271;0.685
15.001000;-0.4046;0.6441;0.1595;0.777
15.002000;-0.3186;0.8535;0.0564;0.913
15.004000;-0.1693;0.9601;0.0750;0.978
15.015000;-0.0356;0.9330;0.1930;0.953
15.024000;0.0658;0.7988;0.4846;0.937
15.034000;0.1557;0.5659;0.9225;1.093
15.045000;0.1778;0.2759;1.3580;1.397
15.056000;0.0516;0.0597;1.9673;1.969
15.114000;-0.0927;-0.0869;2.4892;2.492
15.116000;-0.3193;-0.1779;2.7812;2.805
15.117000;-0.5597;-0.2698;2.9237;2.989
15.118000;-0.6934;-0.2873;2.8794;2.976
15.119000;-0.5761;-0.2334;2.7969;2.865
15.120000;-0.3720;-0.3487;2.7599;2.807
15.124000;-0.2398;-0.5915;2.9398;3.008
15.134000;-0.0921;-1.0301;3.2599;3.420
15.144000;-0.0809;-1.4962;3.5864;3.887
15.154000;-0.0626;-1.8174;3.9551;4.353
15.199000;-0.1211;-1.9360;4.2775;4.697
15.202000;-0.2181;-1.7262;4.3078;4.646
15.204000;-0.2461;-1.2563;3.9620;4.164
15.206000;-0.0726;-0.7567;3.1033;3.195
15.207000;0.2086;-0.3624;1.9162;1.961
15.214000;0.5990;-0.2575;-0.4455;0.790
15.224000;0.9020;-0.2990;-1.4414;1.726
15.234000;1.2182;-0.3295;-1.9358;2.311
15.244000;1.3930;-0.4257;-1.9863;2.463
15.254000;1.4250;-0.6053;-1.6393;2.255
15.295000;1.3318;-0.8177;-0.9703;1.840
15.296000;1.0521;-1.0016;-0.2759;1.479
15.298000;0.6728;-1.0651;0.1687;1.271
15.299000;0.3292;-1.0274;0.1875;1.095
15.304000;0.1295;-0.8225;-0.0593;0.835
15.314000;0.0748;-0.5584;-0.4903;0.747
15.324000;0.0236;-0.2972;-0.9669;1.012
15.337000;0.1029;-0.0339;-1.3180;1.322
15.355000;0.2642;0.5188;-2.0952;2.175
15.393000;0.2927;0.7248;-2.6029;2.718
15.395000;0.2898;0.8966;-2.9624;3.109
15.397000;0.3401;1.0101;-3.2099;3.382
15.398000;0.3901;1.0946;-3.3547;3.550
15.404000;0.4936;1.1896;-3.3393;3.579
15.414000;0.5569;1.2810;-3.1169;3.416
15.424000;0.6041;1.3497;-2.7256;3.101
15.435000;0.6373;1.3777;-2.3746;2.818
15.444000;0.5943;1.2953;-1.9532;2.418
15.455000;0.6106;1.1763;-1.4793;1.986
15.491000;0.6168;1.0069;-1.0726;1.595
15.493000;0.5703;0.8479;-0.7742;1.282
15.494000;0.5336;0.6537;-0.4694;0.966
15.495000;0.4700;0.4570;-0.2387;0.698
15.504000;0.2988;0.1706;0.0206;0.345
15.515000;0.1508;-0.1478;0.2798;0.351
15.524000;-0.0034;-0.3993;0.6620;0.773
15.535000;-0.0930;-0.5711;0.9914;1.148
15.544000;0.1184;-0.4095;1.0014;1.088
15.555000;0.1589;-0.2943;0.8669;0.929
15.596000;0.1880;-0.1320;0.6322;0.673
15.597000;0.1729;0.0316;0.3848;0.423
15.598000;0.0875;0.0723;0.1472;0.186
15.598000;-0.0023;0.0443;0.0413;0.061
15.604000;-0.1001;-0.0262;0.1124;0.153
15.614000;-0.1942;-0.1415;0.3744;0.445
15.624000;-0.1806;-0.2081;0.7517;0.801
15.634000;-0.0305;-0.1296;1.0660;1.074
15.644000;0.2529;-0.0415;1.4374;1.460
15.654000;0.6156;-0.1614;1.7010;1.816
15.696000;0.8475;-0.4617;1.9503;2.176
15.697000;0.6705;-1.0133;2.2991;2.600
15.699000;0.0997;-1.7486;3.0704;3.535
15.701000;-0.4610;-2.6814;4.0769;4.901
15.704000;-0.8614;-3.4536;4.9962;6.134
15.715000;-1.0146;-3.4858;5.8515;6.886
15.724000;-0.9961;-3.0229;6.1447;6.920
15.735000;-0.9721;-2.4880;5.7258;6.318
15.744000;-0.8015;-2.0193;4.0255;4.574
15.756000;-0.4900;-1.2414;2.0046;2.408
15.791000;-0.4285;-0.6686;0.1697;0.812
15.793000;-0.7657;-0.3905;-1.3047;1.562
15.795000;-1.2210;-0.2298;-2.4998;2.792
15.796000;-1.5793;-0.0796;-3.3524;3.707
15.804000;-1.8668;-0.0456;-3.5850;4.042
15.815000;-2.0653;-0.2780;-3.5699;4.134
15.824000;-2.0402;-0.5860;-3.0102;3.683
15.834000;-1.7303;-0.9137;-1.9918;2.792
15.844000;-1.3168;-1.1699;-0.7515;1.915
15.854000;-0.8788;-1.3464;0.1576;1.616
15.891000;-0.4182;-1.2996;0.8957;1.633
15.893000;0.0249;-0.9123;1.0804;1.414
15.894000;0.0558;-0.5652;0.4850;0.747
15.895000;0.1412;-0.2409;-0.4286;0.512
15.904000;0.2629;0.0979;-1.4532;1.480
15.915000;0.4049;0.3932;-2.2700;2.339
15.924000;0.4639;0.5970;-2.9026;2.999
15.934000;0.4267;0.7036;-3.1616;3.267
15.944000;0.3598;0.7576;-3.2410;3.348
15.954000;0.3208;0.7670;-3.1271;3.236
15.991000;0.3256;0.7463;-2.7976;2.914
15.993000;0.3297;0.6826;-2.4498;2.564
15.994000;0.3083;0.6387;-2.1160;2.232
15.996000;0.2905;0.5810;-1.6766;1.798
16.004000;0.2614;0.5348;-1.3364;1.463
16.016000;0.1857;0.5082;-1.0704;1.199
16.024000;0.0902;0.5356;-0.9109;1.061
16.034000;0.0204;0.5896;-0.7299;0.939
16.044000;-0.0406;0.6500;-0.5394;0.846
16.057000;-0.1220;0.6640;-0.2472;0.719
16.099000;-0.2795;0.6666;0.0185;0.723
16.101000;-0.4202;0.7242;0.3465;0.906
16.102000;-0.4781;0.7806;0.5582;1.072
16.102000;-0.4644;0.8041;0.7985;1.225
16.104000;-0.4247;0.8218;0.9957;1.359
16.115000;-0.4248;0.7929;1.2369;1.529
16.124000;-0.4200;0.6811;1.3967;1.610
16.134000;-0.3900;0.5628;1.6163;1.755
16.144000;-0.2897;0.3878;1.7461;1.812
16.154000;-0.2651;0.1203;2.0496;2.070
16.192000;-0.2629;-0.2442;2.4143;2.441
16.194000;-0.3819;-0.5666;2.8689;2.949
16.195000;-0.4571;-0.7328;3.2709;3.383
16.197000;-0.4326;-0.6471;3.4599;3.546
16.204000;0.1250;-0.6442;2.8469;2.922
16.215000;0.2143;-0.5927;2.5476;2.624
16.224000;0.0928;-0.5160;2.2855;2.345
16.235000;-0.0539;-0.7302;2.1096;2.233
16.244000;-0.1257;-1.2813;2.1934;2.543
16.254000;-0.1349;-1.8510;2.4267;3.055
16.295000;-0.0824;-2.0743;2.8121;3.495
16.297000;-0.0798;-2.0145;3.0000;3.615
16.299000;-0.1039;-1.7614;2.8111;3.319
16.299000;0.1244;-1.3540;2.2809;2.655
16.304000;0.3701;-0.9169;1.4873;1.786
16.315000;0.3809;-0.6006;0.6744;0.980
16.324000;0.5020;-0.3618;-0.0656;0.622
16.334000;0.6272;-0.2068;-0.7684;1.013
16.344000;0.5741;-0.2076;-1.2689;1.408
16.354000;0.6086;-0.2351;-1.4449;1.585
16.389000;0.5986;-0.3962;-1.3312;1.512
16.391000;0.4349;-0.6572;-1.0115;1.282
16.392000;0.2439;-0.8829;-0.7792;1.203
16.394000;0.0758;-1.0213;-0.5336;1.155
16.404000;0.0259;-1.0317;-0.4829;1.139
16.416000;-0.1463;-0.9310;-0.6093;1.122
16.424000;-0.3373;-0.7749;-1.0014;1.310
16.434000;-0.3553;-0.5208;-1.3851;1.522
16.444000;-0.2887;-0.2609;-1.7307;1.774
16.456000;-0.2575;0.0333;-2.1338;2.150
16.492000;-0.3015;0.2866;-2.4737;2.508
16.494000;-0.2557;0.4897;-2.7766;2.831
16.495000;-0.2151;0.6181;-2.9658;3.037
16.497000;-0.2796;0.8070;-3.0749;3.191
16.504000;-0.3186;0.9551;-3.0583;3.220
16.516000;-0.2911;1.0612;-2.9459;3.145
16.524000;-0.2761;1.0622;-2.7642;2.974
16.534000;-0.2209;1.0225;-2.4160;2.633
16.544000;-0.0930;0.9263;-1.6226;1.871
16.554000;-0.0146;0.9658;-1.3367;1.649
16.593000;0.0445;0.9236;-1.1675;1.489
16.595000;0.1100;0.8548;-1.0327;1.345
16.596000;0.1894;0.7654;-0.8977;1.195
16.598000;0.2472;0.6302;-0.6727;0.954
16.604000;0.2971;0.4708;-0.4272;0.702
16.614000;0.3521;0.3156;-0.0679;0.478
16.624000;0.4137;0.2053;0.3860;0.602
16.634000;0.4957;0.1565;0.7932;0.948
16.644000;0.6038;0.1769;1.0974;1.265
16.654000;0.7536;0.1475;1.3395;1.544
16.693000;0.8640;0.0390;1.5841;1.805
16.695000;0.8825;-0.0901;1.7880;1.996
16.696000;0.7422;-0.2434;1.9595;2.109
16.698000;0.5353;-0.4662;2.0699;2.188
16.704000;0.3172;-0.6571;2.2125;2.330
16.716000;0.2040;-0.6832;2.2639;2.374
16.724000;0.1453;-0.6802;2.2158;2.322
16.734000;0.1504;-0.6253;2.0767;2.174
16.744000;0.1652;-0.4953;1.9710;2.039
16.754000;0.1697;-0.5202;1.9286;2.005
16.764000;0.2251;-0.8725;1.8911;2.095
16.787000;0.2810;-1.5064;2.0583;2.566
16.789000;0.1369;-2.2172;2.3896;3.263
16.794000;-0.0164;-2.7303;3.0707;4.109
16.804000;-0.3144;-2.9326;4.0168;4.983
16.814000;-0.7617;-2.8154;4.9080;5.709
16.824000;-0.8951;-2.2895;4.9767;5.551
16.834000;-0.7829;-1.5799;3.9364;4.313
16.844000;-0.4595;-1.0130;2.2985;2.554
16.854000;-0.1086;-0.5393;0.7742;0.950
16.864000;-0.0638;-0.0933;-0.7009;0.710
16.883000;-0.8454;-0.0461;-2.9960;3.113
16.885000;-1.3813;-0.2991;-3.1505;3.453
16.894000;-1.8163;-0.5154;-2.8047;3.381
16.904000;-2.1220;-0.8451;-2.1963;3.169
16.916000;-2.0599;-1.0272;-1.4688;2.730
16.923000;-1.7436;-1.2011;-0.7847;2.258
16.934000;-1.2780;-1.1806;-0.3750;1.780
16.944000;-0.5782;-0.9353;-0.1562;1.111
16.954000;0.0749;-0.5686;-0.2465;0.624
16.964000;0.3338;-0.3537;-0.3480;0.598
17.001000;0.1812;-0.1935;-0.4744;0.543
17.003000;-0.0680;0.0699;-0.5417;0.550
17.004000;-0.2034;0.2918;-0.6566;0.747
17.005000;-0.2125;0.4503;-0.9125;1.040
17.014000;-0.2667;0.5744;-1.3344;1.477
17.024000;-0.2758;0.7417;-1.9015;2.060
17.035000;-0.1546;0.9647;-2.3646;2.558
17.044000;0.0126;1.0434;-2.8094;2.997
17.055000;0.1482;1.1765;-2.9782;3.206
17.078000;0.2513;1.3268;-2.8937;3.193
17.083000;0.2989;1.3311;-2.8350;3.146
17.125000;0.3717;1.2234;-2.6002;2.898
17.127000;0.2795;0.8657;-1.8973;2.104
17.129000;0.1901;0.6892;-1.5652;1.721
17.130000;0.1112;0.5154;-1.2307;1.339
17.134000;-0.0106;0.3199;-0.9418;0.995
17.144000;-0.1266;0.1907;-0.4926;0.543
17.154000;-0.2974;0.0736;0.0883;0.319
17.164000;-0.3803;0.0816;0.6294;0.740
17.175000;-0.4314;0.1501;1.0518;1.147
17.218000;-0.4548;0.2514;1.2942;1.395
17.220000;-0.3885;0.4008;1.4131;1.519
17.221000;-0.1302;0.6487;1.5030;1.642
17.223000;-0.1514;0.6328;1.7125;1.832
17.224000;-0.0993;0.5034;2.0680;2.131
17.235000;0.0005;0.2812;2.4847;2.501
17.244000;-0.0148;0.0766;2.7902;2.791
17.256000;-0.0722;-0.0679;3.0288;3.030
17.294000;-0.1796;-0.2165;3.1335;3.146
17.296000;-0.3265;-0.3127;3.1245;3.157
17.296000;-0.4398;-0.3832;3.0535;3.109
17.298000;-0.5764;-0.6403;2.9623;3.085
17.303000;-0.4503;-1.1296;2.7431;3.001
17.314000;-0.2879;-1.7724;2.9191;3.427
17.324000;-0.2756;-2.3724;3.2103;4.001
17.334000;-0.3341;-2.6324;3.8325;4.661
17.344000;-0.2686;-2.6345;4.2446;5.003
17.354000;-0.2702;-2.3286;4.1700;4.784
17.364000;-0.1223;-1.6484;3.4465;3.822
17.377000;0.2117;-0.8016;2.1605;2.314
17.423000;0.4362;-0.1232;0.8087;0.927
17.424000;0.5074;0.2712;-0.6686;0.882
17.425000;0.6684;0.5797;-2.1296;2.306
17.427000;0.8406;0.6819;-3.2464;3.422
17.428000;0.9347;0.5236;-3.8441;3.991
17.434000;1.0241;0.2292;-3.6425;3.791
17.444000;1.0867;-0.1324;-2.5074;2.736
17.455000;0.9729;-0.4644;-1.2146;1.624
17.464000;0.7465;-0.7057;-0.1472;1.038
17.492000;0.5813;-0.8798;0.6991;1.265
17.493000;0.3307;-1.0464;1.1947;1.622
17.494000;0.1153;-0.9758;1.1535;1.515
17.504000;0.0376;-0.7107;0.5954;0.928
17.514000;0.1242;-0.3780;-0.2568;0.474
17.523000;0.1743;-0.0292;-1.0881;1.102
17.534000;0.0487;0.5272;-2.0491;2.116
17.544000;-0.0501;0.6937;-2.3857;2.485
17.554000;-0.1293;0.8407;-2.5706;2.708
17.564000;-0.1426;1.0200;-2.7535;2.940
17.574000;-0.1636;1.1771;-2.8648;3.101
17.602000;-0.1204;1.2950;-2.8409;3.124
17.604000;-0.2239;1.2586;-2.7692;3.050
17.605000;0.1186;1.3924;-2.4737;2.841
17.614000;0.3685;1.2997;-2.0584;2.462
17.624000;0.4216;1.0600;-1.6598;2.014
17.634000;0.4973;0.9424;-1.3379;1.710
17.644000;0.5248;0.8663;-1.0698;1.473
17.656000;0.5507;0.8133;-0.9035;1.335
17.664000;0.6571;0.7743;-0.7708;1.275
17.688000;0.7046;0.6220;-0.5350;1.081
17.690000;0.6850;0.4557;-0.0573;0.825
17.694000;0.7718;0.3946;0.5570;1.030
17.704000;0.8240;0.3589;0.9905;1.338
17.714000;0.8939;0.3225;1.1330;1.479
17.724000;0.9685;0.3688;1.1018;1.513
17.735000;1.1585;0.4637;1.0730;1.646
17.744000;1.2084;0.4882;1.0647;1.683
17.754000;1.1576;0.3999;0.9778;1.567
17.764000;1.0264;0.2044;0.9822;1.435
17.774000;0.8077;-0.1087;1.0982;1.368
17.815000;0.5205;-0.4941;1.2585;1.449
17.817000;0.2706;-0.6514;1.5710;1.722
17.818000;-0.0096;-0.5492;2.0056;2.079
17.819000;-0.0684;-0.3370;2.5109;2.534
17.824000;-0.0166;-0.2565;2.6295;2.642
17.834000;0.0341;-0.3326;2.3914;2.415
17.844000;0.1818;-0.3348;2.1449;2.179
17.859000;0.2489;-0.3319;2.0685;2.110
17.864000;-0.1893;-1.1628;2.0101;2.330
17.919000;-0.6701;-1.5967;1.9553;2.612
17.921000;-0.9688;-1.5298;2.0155;2.710
17.922000;-1.0720;-1.0334;2.2673;2.712
17.924000;-1.1036;-0.6059;2.0353;2.393
17.925000;-1.0108;-0.3314;1.3771;1.740
17.928000;-0.6991;0.0349;0.5368;0.882
17.935000;-0.4416;0.4203;-0.2497;0.659
17.944000;-0.4953;0.5362;-1.0002;1.238
17.954000;-0.5983;0.4753;-1.6214;1.792
17.964000;-0.6334;0.3289;-1.9466;2.073
17.974000;-0.5539;0.1275;-1.6525;1.748
18.009000;-0.3702;-0.0512;-1.0750;1.138
18.010000;-0.2291;-0.2414;-0.4727;0.578
18.011000;-0.2365;-0.3880;-0.0767;0.461
18.014000;-0.1046;-0.3338;0.2003;0.403
18.024000;0.0528;-0.1766;0.2332;0.297
18.034000;0.1083;-0.0263;-0.1086;0.156
18.044000;0.1363;0.2152;-0.5156;0.575
18.054000;0.2161;0.4890;-0.9779;1.114
18.064000;0.2411;0.7696;-1.5604;1.757
18.074000;0.1444;0.9576;-2.2472;2.447
18.112000;0.0104;1.1177;-2.8279;3.041
18.114000;-0.0890;1.2914;-3.3419;3.584
18.116000;-0.2106;1.4143;-3.7779;4.039
18.117000;-0.2960;1.4800;-4.0520;4.324
18.124000;-0.2492;1.5092;-4.1305;4.405
18.135000;-0.2995;1.3909;-4.0183;4.263
18.144000;-0.2834;1.2788;-3.5118;3.748
18.154000;-0.2171;1.0708;-2.7620;2.970
18.164000;-0.2304;0.8122;-1.9414;2.117
18.177000;-0.3393;0.4835;-1.0919;1.241
18.227000;-0.4349;0.1398;-0.2830;0.537
18.229000;-0.5585;-0.2102;1.1963;1.337
18.230000;-0.5049;-0.5562;1.7981;1.949
18.234000;-0.5362;-0.5140;2.3975;2.510
18.235000;-0.5595;-0.3722;2.8770;2.954
18.236000;-0.5293;-0.1549;3.0714;3.121
18.244000;-0.3361;0.0782;2.7962;2.817
18.255000;-0.1837;0.1760;2.3903;2.404
18.264000;-0.1181;0.0915;2.0573;2.063
18.296000;-0.0965;-0.1610;2.0406;2.049
18.297000;0.0185;-0.5227;2.1546;2.217
18.298000;0.0372;-0.8268;2.3479;2.490
18.303000;-0.1401;-0.8110;2.4602;2.594
18.314000;-0.2343;-0.5067;2.5392;2.600
18.324000;-0.0424;-0.1844;2.2750;2.283
18.334000;0.2622;0.0234;1.9297;1.948
18.343000;0.3931;0.0998;1.8683;1.912
18.354000;0.3008;0.0845;1.9648;1.990
18.364000;-0.0456;-0.2531;2.2263;2.241
18.376000;-0.3392;-0.8617;2.4789;2.646
18.419000;-0.2880;-1.3057;2.5839;2.909
18.421000;-0.0561;-1.4591;2.6698;3.043
18.423000;0.2581;-1.3641;2.6996;3.036
18.424000;0.5591;-1.1677;2.5331;2.845
18.426000;0.8371;-1.0292;2.1640;2.538
18.435000;1.0197;-0.8517;1.7673;2.211
18.444000;1.0205;-0.6571;1.3404;1.808
18.454000;0.7915;-0.5993;0.9245;1.357
18.464000;0.5038;-0.6215;0.4152;0.901
18.480000;0.2555;-0.6585;-0.1621;0.725
18.487000;0.0687;-0.6048;-0.7165;0.940
18.521000;-0.2080;-0.4524;-1.3102;1.402
18.523000;-0.5631;-0.4703;-1.9253;2.060
18.525000;-0.7872;-0.3555;-2.3341;2.489
18.526000;-0.9013;-0.3487;-2.4862;2.667
18.535000;-0.8024;-0.5205;-1.7136;1.962
18.544000;-0.7323;-0.4842;-1.2515;1.529
18.555000;-0.6012;-0.3025;-0.9292;1.147
18.564000;-0.4537;0.0041;-1.0297;1.125
18.575000;-0.2876;0.3984;-1.2567;1.349
18.613000;-0.2284;0.7333;-1.7986;1.956
18.614000;-0.1232;1.0557;-2.4242;2.647
18.616000;0.0036;1.4151;-2.9634;3.284
18.617000;0.0850;1.5527;-3.2924;3.641
18.624000;-0.0293;1.6688;-3.3102;3.707
18.635000;-0.0470;1.7798;-3.0622;3.542
18.644000;-0.0775;1.7575;-2.6367;3.170
18.655000;-0.0712;1.5742;-2.0803;2.610
18.664000;0.0117;1.3885;-1.5904;2.111
18.675000;0.0462;1.1302;-1.1610;1.621
18.726000;0.0711;0.7846;-0.7814;1.110
18.727000;0.0880;0.4295;-0.3486;0.560
18.728000;0.1437;0.2439;0.0965;0.299
18.729000;0.2099;0.1453;0.4880;0.551
18.729000;0.3255;0.0527;0.7981;0.864
18.735000;0.5393;-0.0587;1.2190;1.334
18.744000;0.7454;-0.2597;1.6661;1.844
18.756000;0.7642;-0.5373;2.1011;2.299
18.764000;0.5756;-0.8731;2.4894;2.700
18.803000;0.2946;-1.1692;2.7459;2.999
18.805000;0.0884;-1.3763;2.8491;3.165
18.806000;-0.0951;-1.4654;2.7833;3.147
18.807000;-0.3810;-1.3863;2.7545;3.107
18.814000;-0.5151;-1.1124;2.6873;2.954
18.824000;-0.5601;-0.8514;2.5543;2.750
18.835000;-0.3430;-0.6736;2.2205;2.346
18.844000;-0.1006;-0.5719;1.7563;1.850
18.854000;-0.0148;-0.6791;1.3425;1.505
18.864000;-0.4812;-1.4461;1.4973;2.136
18.878000;-0.9009;-1.7950;1.9976;2.833
18.937000;-1.1327;-1.7875;2.2136;3.062
18.939000;-1.1618;-1.4077;2.3475;2.974
18.939000;-0.6998;-0.8133;1.1659;1.584
18.940000;-0.2766;-0.5046;0.3064;0.652
18.941000;-0.1170;-0.3453;-0.4245;0.560
18.944000;-0.0573;-0.2447;-0.9912;1.023
18.954000;-0.0339;-0.2463;-1.4403;1.462
18.964000;0.0079;-0.3747;-1.4952;1.541
18.974000;-0.1350;-0.6159;-0.9547;1.144
19.023000;-0.3594;-0.7935;-0.3084;0.924
19.024000;-0.3792;-0.8290;0.1674;0.927
19.026000;-0.2202;-0.7541;0.4019;0.882
19.026000;-0.0599;-0.5833;0.2609;0.642
19.066000;0.3038;0.0258;-1.0209;1.066
19.067000;0.4547;0.3562;-1.8146;1.904
19.068000;0.3421;0.6196;-2.4407;2.541
19.069000;0.2404;0.8016;-2.9040;3.022
19.074000;0.2366;1.0769;-3.1738;3.360
19.092000;0.1827;1.1314;-3.2878;3.482
19.094000;0.0736;1.1556;-3.3016;3.499
19.103000;0.0205;1.1534;-3.2640;3.462
19.113000;0.0087;1.1401;-3.1929;3.390
19.124000;0.0194;1.1436;-3.0788;3.284
19.135000;0.0104;1.1276;-2.8749;3.088
19.143000;-0.0007;1.0785;-2.5919;2.807
19.154000;-0.0635;0.9843;-2.1832;2.396
19.163000;-0.1142;0.8423;-1.7373;1.934
19.174000;-0.1445;0.6759;-1.1775;1.365
19.197000;-0.2441;0.4630;-0.5313;0.746
19.198000;-0.4712;0.0925;0.9926;1.103
19.206000;-0.4500;0.0432;1.6881;1.748
19.213000;-0.4804;0.1269;2.1381;2.195
19.223000;-0.4781;0.2625;2.4459;2.506
19.233000;-0.3086;0.4119;2.3944;2.449
19.243000;-0.1587;0.4897;2.2109;2.270
19.255000;-0.0553;0.4358;2.0776;2.124
19.264000;-0.0108;0.2527;2.0810;2.096
19.282000;0.0548;-0.0505;2.1745;2.176
19.285000;0.0056;-0.4174;2.3963;2.432
19.293000;0.0039;-0.6299;2.6340;2.708
19.303000;0.0771;-0.5499;2.8610;2.914
19.314000;0.2707;-0.4535;2.9576;3.004
19.323000;0.4619;-0.4507;2.7826;2.856
19.334000;0.5433;-0.5765;2.5287;2.650
19.344000;0.6428;-0.6533;2.3922;2.562
19.356000;0.5056;-0.8456;2.5491;2.733
19.363000;0.1448;-1.2373;2.8628;3.122
19.396000;-0.0666;-1.5722;3.0976;3.474
19.398000;-0.0534;-1.6706;2.9973;3.432
19.400000;0.1390;-1.4737;2.6443;3.030
19.406000;0.3736;-1.1813;2.0086;2.360
19.413000;0.4677;-0.8714;1.1862;1.544
19.424000;0.6617;-0.5459;0.3565;0.929
19.436000;0.8029;-0.2037;-0.5630;1.002
19.445000;0.8846;-0.2105;-1.3376;1.617
19.454000;0.9237;0.2438;-1.9013;2.128
19.463000;1.0313;0.1259;-1.9871;2.242
19.475000;1.0004;-0.2125;-1.5017;1.817
19.517000;0.7573;-0.6079;-0.0916;0.975
19.519000;0.3621;-0.9131;-0.0900;0.986
19.520000;0.1633;-0.9944;0.4378;1.099
19.521000;0.0797;-0.9004;0.7804;1.194
19.524000;-0.0004;-0.7115;0.3244;0.782
19.534000;-0.0137;0.1029;-0.4579;0.469
19.543000;0.1003;0.5676;-1.3980;1.512
19.558000;0.1448;0.8377;-2.3596;2.508
19.564000;0.0586;1.0709;-3.0766;3.258
19.593000;-0.0367;1.3085;-3.5426;3.777
19.594000;-0.2844;1.4925;-3.7608;4.056
19.596000;-0.3938;1.5714;-3.7396;4.075
19.603000;-0.4783;1.5596;-3.5878;3.941
19.613000;-0.5063;1.4974;-3.2120;3.580
19.624000;-0.4693;1.3473;-2.7990;3.142
19.634000;-0.4702;1.1374;-2.3608;2.662
19.644000;-0.4707;0.9380;-1.9248;2.192
19.658000;-0.4719;0.7716;-1.5724;1.814
19.664000;-0.4930;0.6094;-1.2497;1.475
19.674000;-0.4578;0.4674;-0.9409;1.146
19.684000;-0.3732;0.2930;-0.6652;0.817
19.694000;-0.3343;0.1389;-0.4214;0.555
19.703000;-0.3470;0.0605;-0.1531;0.384
19.713000;-0.3298;0.0569;0.1560;0.369
19.724000;-0.3104;0.0172;0.4407;0.539
19.734000;-0.2040;-0.1292;0.8904;0.923
19.744000;-0.1059;-0.3021;1.3711;1.408
19.756000;-0.1064;-0.5120;1.8723;1.944
19.764000;-0.2265;-0.7655;2.2634;2.400
19.791000;-0.3662;-1.0562;2.4893;2.729
19.793000;-0.4789;-1.2705;2.7019;3.024
19.795000;-0.6147;-1.2002;2.9022;3.200
19.803000;-0.7013;-0.9859;3.1141;3.341
19.814000;-0.6446;-0.8298;3.0195;3.197
19.824000;-0.3074;-0.7150;2.7525;2.860
19.834000;0.1200;-0.8312;2.4221;2.564
19.843000;0.2853;-1.2626;2.3071;2.645
19.857000;0.1082;-1.9443;3.1015;3.662
19.863000;-0.6770;-2.9476;3.7277;4.800
19.891000;-0.7368;-2.7919;4.4862;5.335
19.893000;-0.6314;-2.4022;4.7907;5.396
19.895000;-0.5266;-2.1000;4.2095;4.734
19.904000;-0.2179;-1.6691;3.0938;3.522
19.913000;0.0729;-1.1097;1.8135;2.127
19.924000;0.1013;-0.6795;0.5804;0.899
19.934000;-0.0106;-0.4440;-0.7433;0.866
19.943000;-0.2027;-0.3577;-1.8060;1.852
19.957000;-0.4220;-0.3127;-2.3376;2.396
19.963000;-0.5744;-0.2966;-2.2675;2.358
19.991000;-0.6376;-0.3548;-1.9499;2.082
19.992000;-0.5749;-0.3813;-1.8072;1.934
19.994000;-0.3098;-0.3533;-1.7226;1.786
20.004000;-0.0298;-0.2660;-1.5870;1.609
20.014000;0.2366;-0.1487;-1.4651;1.491
20.024000;0.3883;0.0293;-1.5364;1.585
20.034000;0.3262;0.2402;-1.8076;1.852
20.044000;0.0736;0.4945;-2.1832;2.240
20.057000;-0.0843;0.7031;-2.6574;2.750
20.064000;-0.1095;0.9051;-3.1783;3.306
20.091000;-0.0965;1.0341;-3.6576;3.802
20.093000;-0.0366;1.0857;-3.9526;4.099
20.095000;0.1389;1.1774;-4.1039;4.272
20.103000;0.2870;1.2456;-4.0562;4.253
20.114000;0.3763;1.2744;-3.7881;4.014
20.124000;0.3881;1.2869;-3.3582;3.617
20.133000;0.3027;1.2630;-2.9019;3.179
20.143000;0.1544;1.1911;-2.5284;2.799
20.159000;0.0665;1.0726;-2.1298;2.386
20.164000;0.0583;0.9090;-1.7349;1.960
20.194000;0.0123;0.6491;-1.1726;1.340
20.196000;-0.0376;0.4383;-0.5781;0.726
20.196000;-0.1754;0.0906;0.9034;0.925
20.203000;-0.1391;-0.0347;1.7563;1.762
20.213000;-0.1204;-0.1366;2.5170;2.524
20.224000;-0.1429;-0.2197;3.0406;3.052
20.233000;-0.1919;-0.3103;3.3644;3.384
20.243000;-0.1447;-0.3183;3.5182;3.536
20.259000;-0.0436;-0.3291;3.6338;3.649
20.264000;0.0156;-0.5167;3.5449;3.582
20.295000;-0.0415;-0.6624;3.4130;3.477
20.297000;-0.0649;-0.5178;3.3903;3.430
20.298000;-0.1412;-0.2840;3.2910;3.306
20.304000;-0.1353;-0.1820;2.9955;3.004
20.313000;-0.0793;-0.2506;2.6198;2.633
20.324000;-0.0416;-0.4374;2.4320;2.471
20.333000;0.0062;-0.8376;2.5482;2.682
20.343000;0.0220;-1.4198;3.1001;3.410
20.357000;-0.0737;-1.9069;3.9405;4.378
20.364000;-0.2068;-2.0333;4.5966;5.031
20.392000;-0.2862;-1.8646;4.8495;5.203
20.394000;-0.0004;-1.4831;4.3421;4.588
20.396000;0.3238;-1.0586;3.1655;3.353
20.404000;0.5539;-0.7235;1.7997;2.017
20.413000;0.8917;-0.3617;0.4124;1.047
20.424000;1.2354;-0.0610;-0.7822;1.463
20.433000;1.3555;0.0408;-1.6465;2.133
20.443000;1.2333;-0.0396;-2.0380;2.382
20.458000;1.1673;-0.1812;-1.9579;2.287
20.464000;1.0173;-0.3784;-1.5853;1.921
20.495000;0.6385;-0.5548;-1.0290;1.332
20.496000;0.2852;-0.5085;-0.6996;0.911
20.498000;0.0643;-0.3417;-0.6585;0.745
20.505000;-0.0896;-0.1318;-0.9669;0.980
20.514000;-0.3197;0.3811;-2.2609;2.315
20.524000;-0.3731;0.5869;-2.7508;2.837
20.534000;-0.4134;0.7681;-2.9285;3.056
20.544000;-0.4636;1.0656;-2.9183;3.141
20.562000;-0.2785;1.3517;-2.8866;3.200
20.564000;-0.2611;1.4663;-2.9414;3.297
20.618000;-0.3124;1.6162;-2.7896;3.239
20.620000;-0.1810;1.6477;-2.9088;3.348
20.621000;-0.2252;1.5855;-2.9698;3.374
20.623000;-0.3323;1.4775;-2.9281;3.297
20.624000;-0.3010;1.3124;-2.5859;2.915
20.625000;-0.1590;1.0791;-2.2506;2.501
20.634000;-0.0587;0.8094;-1.9137;2.079
20.643000;0.0026;0.5670;-1.5631;1.663
20.659000;-0.0296;0.3890;-1.0755;1.144
20.664000;-0.0074;0.2322;-0.6076;0.651
20.706000;0.0128;0.0766;-0.2662;0.277
20.708000;0.0717;-0.0474;-0.0033;0.086
20.709000;0.1386;-0.1811;0.3329;0.403
20.709000;0.1983;-0.3595;0.6764;0.791
20.714000;0.2968;-0.5469;1.1564;1.313
20.724000;0.2886;-0.7901;1.7750;1.964
20.733000;0.1295;-1.0609;2.4413;2.665
20.743000;0.0103;-1.2914;2.9780;3.246
20.760000;-0.0732;-1.4620;3.2711;3.584
20.765000;-0.0427;-1.4531;3.2307;3.543
20.788000;0.1430;-1.1219;2.9978;3.204
20.789000;0.3230;-0.5945;2.6155;2.702
20.794000;0.4231;-0.2205;2.2306;2.281
20.805000;0.5875;0.0188;2.0002;2.085
20.814000;0.9277;0.2587;1.8539;2.089
20.824000;1.0910;0.2592;1.8206;2.138
20.833000;1.0415;-0.1094;2.0211;2.276
20.843000;0.7587;-0.7563;2.4741;2.696
20.860000;-0.0931;-1.8193;4.0450;4.436
20.864000;-0.4640;-1.8015;4.7978;5.146
20.909000;-0.7015;-1.6410;5.1999;5.498
20.911000;-0.6796;-1.4635;4.6467;4.919
20.912000;-0.7328;-1.2377;3.6926;3.963
20.914000;-1.0563;-1.1973;2.6586;3.101
20.915000;-1.3280;-1.0921;1.2481;2.125
20.926000;-1.5942;-0.8999;-0.5745;1.919
20.934000;-1.8179;-0.7528;-2.1553;2.918
20.945000;-1.9298;-0.6753;-3.2647;3.852
20.960000;-1.8758;-0.6185;-3.5936;4.101
20.964000;-1.7487;-0.6704;-3.2672;3.766
21.019000;-1.3325;-0.7700;-2.7219;3.127
21.021000;-0.8181;-0.7307;-2.0763;2.348
21.022000;-0.3473;-0.5224;-1.5029;1.629
21.023000;0.0150;-0.2530;-1.0874;1.116
21.025000;0.2104;0.0171;-0.8590;0.885
21.026000;0.2559;0.3206;-0.9737;1.057
21.034000;0.3231;0.6146;-1.5398;1.689
21.044000;0.4118;0.9176;-2.3016;2.512
21.060000;0.4738;1.0472;-3.0288;3.240
21.065000;0.6103;1.1417;-3.5047;3.736
21.111000;0.4845;1.1063;-3.7998;3.987
21.113000;0.3446;1.1137;-3.8384;4.012
21.115000;0.3037;1.0981;-3.7138;3.885
21.117000;0.2929;1.0649;-3.5241;3.693
21.118000;0.1445;0.9983;-3.1281;3.287
21.124000;-0.1360;0.9181;-2.6076;2.768
21.134000;-0.3173;0.8912;-2.1649;2.363
21.144000;-0.3651;0.7851;-1.8014;1.999
21.160000;-0.4073;0.6568;-1.5195;1.705
21.164000;-0.4377;0.5537;-1.1118;1.317
21.196000;-0.5421;0.4816;-0.4658;0.862
21.198000;-0.6769;0.3623;0.8484;1.144
21.198000;-0.7540;0.2504;1.5871;1.775
21.206000;-0.7833;0.1817;2.1405;2.287
21.214000;-0.7925;0.1535;2.5121;2.639
21.224000;-0.7551;0.1707;2.7031;2.812
21.234000;-0.6034;0.2819;2.7492;2.829
21.244000;-0.3810;0.2866;2.6552;2.698
21.259000;-0.1833;0.1331;2.5968;2.607
21.264000;-0.0326;-0.0743;2.7346;2.736
21.305000;0.0746;-0.1746;2.9036;2.910
21.307000;0.0832;-0.1236;2.9994;3.003
21.308000;0.0879;-0.1115;3.0317;3.035
21.310000;0.0131;-0.3363;3.0781;3.096
21.314000;0.1154;-0.8535;3.2668;3.378
21.324000;0.2620;-1.5430;3.6065;3.931
21.334000;0.2738;-2.1524;4.2038;4.731
21.344000;0.2846;-2.4457;4.8422;5.432
21.364000;0.2211;-2.4599;5.2367;5.790
21.368000;0.2675;-2.1526;5.0842;5.528
21.422000;0.4994;-1.5635;4.0851;4.402
21.425000;0.8083;-0.9234;2.5954;2.871
21.426000;0.9302;-0.4985;1.1034;1.527
21.427000;1.2353;-0.1465;-0.3072;1.281
21.428000;1.3711;0.0980;-1.6541;2.151
21.429000;1.3245;0.2307;-2.5089;2.846
21.434000;1.1615;0.2179;-2.8395;3.076
21.444000;1.0522;0.0940;-2.8637;3.052
21.460000;0.8836;-0.1096;-2.4532;2.610
21.465000;0.6072;-0.3082;-1.8340;1.956
21.495000;0.4740;-0.3896;-1.3747;1.505
21.497000;0.4271;-0.3561;-0.9159;1.072
21.498000;0.3998;-0.2449;-0.7010;0.843
21.506000;0.3490;-0.0355;-0.7390;0.818
21.514000;0.2406;0.2044;-1.1114;1.155
21.524000;0.1164;0.5475;-1.9381;2.017
21.534000;0.0277;0.7617;-2.1761;2.306
21.544000;0.0195;1.0955;-2.4706;2.703
21.554000;0.0894;1.3440;-2.7486;3.061
21.565000;0.1098;1.4622;-2.9370;3.283
21.599000;0.1557;1.5454;-3.0514;3.424
21.602000;0.1486;1.5953;-3.1217;3.509
21.603000;0.1131;1.5985;-3.1897;3.570
21.605000;0.0388;1.4730;-3.0925;3.426
21.614000;-0.0391;1.2413;-2.8778;3.134
21.624000;-0.0504;0.9792;-2.5742;2.755
21.634000;-0.0126;0.7510;-2.1648;2.291
21.644000;0.0230;0.4857;-1.6700;1.739
21.654000;0.1021;0.2018;-1.1078;1.131
21.665000;0.1902;-0.0255;-0.6149;0.644
21.709000;0.2400;-0.1974;-0.1362;0.339
21.710000;0.2293;-0.3370;0.2994;0.506
21.711000;0.2405;-0.3981;0.7875;0.915
21.712000;0.1631;-0.4215;1.3112;1.387
21.715000;0.1604;-0.4814;1.8216;1.891
21.724000;0.2214;-0.5912;2.2588;2.345
21.734000;0.2409;-0.7170;2.6304;2.737
21.744000;0.2357;-0.8339;2.9182;3.044
21.755000;0.2133;-0.9159;3.1569;3.294
21.765000;0.1560;-0.9974;3.1427;3.301
21.816000;-0.0222;-0.9021;3.0873;3.216
21.819000;-0.2092;-0.6539;3.1331;3.207
21.820000;-0.2406;-0.5009;3.1426;3.191
21.821000;-0.0313;-0.4147;3.1112;3.139
21.823000;0.2190;-0.3107;2.8789;2.904
21.824000;0.3983;-0.1225;2.6541;2.687
21.834000;0.3707;-0.1461;2.4031;2.436
21.844000;0.0437;-0.6270;2.7077;2.780
21.855000;-0.8386;-1.9111;3.4014;3.991
21.865000;-1.3401;-2.0862;3.9464;4.661
21.903000;-1.6756;-1.9075;4.3346;5.023
21.905000;-1.7555;-1.5813;3.9531;4.605
21.906000;-1.6832;-1.3347;2.7566;3.495
21.907000;-1.5236;-1.0619;1.4958;2.385
21.914000;-1.3946;-0.6876;0.1277;1.560
21.924000;-1.3841;-0.3699;-1.2269;1.886
21.934000;-1.3213;-0.1182;-2.3981;2.741
21.944000;-1.2027;0.0754;-3.1836;3.404
21.954000;-1.0540;0.1031;-3.5467;3.701
21.965000;-1.1817;-0.0037;-3.0731;3.292
22.002000;-0.9971;-0.0417;-2.2704;2.480
22.003000;-0.5446;-0.1313;-1.7096;1.799
22.004000;-0.2626;-0.2211;-1.2671;1.313
22.005000;-0.0863;-0.1524;-0.9740;0.990
22.014000;-0.0130;0.0697;-0.9608;0.963
22.024000;0.0254;0.3093;-1.1740;1.214
22.034000;0.1590;0.3475;-1.6630;1.706
22.044000;0.2998;0.2934;-2.3631;2.400
22.054000;0.4150;0.3557;-3.1005;3.148
22.065000;0.4077;0.4155;-3.8608;3.904
22.106000;0.3030;0.4788;-4.4510;4.487
22.109000;0.3003;0.6486;-4.7251;4.779
22.110000;0.3460;0.8687;-4.6675;4.760
22.112000;0.4209;1.1194;-4.4494;4.607
22.114000;0.4661;1.2244;-4.0697;4.275
22.124000;0.4323;1.1653;-3.4181;3.637
22.134000;0.4166;1.0800;-2.5458;2.797
22.145000;0.4017;0.9349;-1.6613;1.948
22.155000;0.3374;0.7207;-0.6927;1.055
22.164000;0.3202;0.5315;0.1790;0.646
22.201000;0.2582;0.3911;1.0760;1.174
22.202000;0.0238;0.2204;2.6123;2.622
22.204000;-0.0055;0.1942;3.0951;3.101
22.208000;-0.0565;0.2098;3.2510;3.258
22.214000;-0.0641;0.2756;3.2034;3.216
22.224000;-0.1403;0.3705;3.0743;3.100
22.233000;-0.2349;0.4366;2.9346;2.976
22.244000;-0.2497;0.4368;2.7244;2.770
22.254000;-0.2027;0.2660;2.6256;2.647
22.264000;-0.0981;0.0167;2.6668;2.669
22.278000;-0.0797;-0.0765;2.8611;2.863
22.284000;-0.0520;0.0957;3.0669;3.069
22.334000;0.0706;0.2953;3.1538;3.168
22.336000;0.2462;0.3106;2.9232;2.950
22.339000;0.3893;0.0970;2.7296;2.759
22.340000;0.4476;-0.3293;2.8213;2.875
22.341000;0.3975;-0.7941;3.0977;3.222
22.344000;0.2482;-1.1999;3.4501;3.661
22.354000;0.1523;-1.3971;3.5442;3.813
22.364000;0.0926;-1.2778;3.3655;3.601
22.378000;0.1622;-0.8567;2.7614;2.896
22.384000;0.3354;-0.3582;1.7650;1.832
22.426000;0.3952;-0.0006;0.6390;0.751
22.427000;0.6144;0.2672;-0.5051;0.839
22.428000;1.0158;0.5781;-1.5353;1.930
22.429000;1.3104;0.7506;-2.4359;2.866
22.434000;1.4954;0.7868;-2.9519;3.401
22.443000;1.7877;0.7483;-2.8988;3.487
22.454000;1.8100;0.4663;-2.2850;2.952
22.464000;1.4892;0.0122;-1.3916;2.038
22.478000;1.1281;-0.4093;-0.5047;1.302
22.484000;0.8196;-0.6162;0.0786;1.028
22.517000;0.5917;-0.5463;0.2129;0.833
22.519000;0.3749;-0.3021;-0.0732;0.487
22.520000;0.2237;0.5125;-1.9798;2.057
22.529000;0.0776;0.7453;-3.0252;3.117
22.534000;0.0400;0.8373;-3.4474;3.548
22.544000;0.1086;0.9792;-3.4662;3.604
22.554000;0.0877;1.0661;-3.3044;3.473
22.563000;-0.0238;1.1698;-2.9966;3.217
22.578000;-0.2016;1.3238;-2.8700;3.167
22.584000;-0.3613;1.4163;-2.8589;3.211
22.615000;-0.4074;1.4908;-2.9143;3.299
22.617000;-0.3305;1.5233;-2.9390;3.327
22.619000;-0.2334;1.4945;-2.8251;3.205
22.624000;-0.0612;1.4586;-2.5120;2.905
22.634000;0.0868;1.3268;-1.8717;2.296
22.644000;0.2455;1.0593;-0.9386;1.436
22.655000;0.2891;0.6355;0.1100;0.707
22.664000;0.2235;0.1992;1.3017;1.336
22.683000;0.2203;-0.0438;2.2941;2.305
22.685000;0.1027;-0.2125;2.9659;2.975
22.743000;-0.0476;-0.3094;3.5251;3.539
22.745000;-0.1798;-0.3842;3.8467;3.870
22.747000;-0.2231;-0.4412;3.9321;3.963
22.748000;-0.2078;-0.5473;3.9371;3.980
22.750000;-0.1706;-0.6697;3.8201;3.882
22.751000;-0.1337;-0.7315;3.7103;3.784
22.754000;-0.1680;-0.6037;3.5274;3.583
22.764000;-0.2891;-0.3147;3.2606;3.288
22.779000;-0.3635;-0.0089;2.9530;2.975
22.784000;-0.4268;0.1494;2.7015;2.739
22.830000;-0.2494;-0.0164;2.3628;2.376
22.832000;0.1031;-0.4453;2.0076;2.059
22.832000;0.2643;-1.1444;2.1443;2.445
22.834000;0.0274;-2.0671;3.0217;3.661
22.836000;-0.4543;-2.7565;3.9177;4.812
22.845000;-1.1007;-2.5078;5.5300;6.171
22.854000;-1.0293;-1.9856;5.2011;5.662
22.865000;-0.6531;-1.5784;3.6917;4.068
22.881000;-0.2787;-1.1605;1.7946;2.155
22.885000;-0.0814;-0.5867;-0.0191;0.593
22.926000;-0.0278;-0.2181;-1.8690;1.882
22.928000;-0.2064;-0.0714;-3.4941;3.501
22.930000;-0.4572;-0.0552;-4.5655;4.589
22.931000;-0.5810;-0.0820;-4.8576;4.893
22.934000;-0.5279;-0.1620;-4.5625;4.596
22.944000;-0.4097;-0.2820;-3.8302;3.862
22.954000;-0.2475;-0.4098;-3.1418;3.178
22.964000;-0.0220;-0.4083;-2.6751;2.706
22.979000;0.2620;-0.2839;-2.4920;2.522
22.984000;0.5536;-0.0420;-2.5611;2.621
23.032000;0.8148;0.2235;-2.8548;2.977
23.034000;0.8867;0.3402;-3.1830;3.322
23.035000;0.8498;0.4163;-3.3638;3.494
23.037000;0.6834;0.6015;-3.5004;3.617
23.038000;0.4444;0.7431;-3.7339;3.833
23.044000;0.2374;0.8238;-3.8838;3.977
23.053000;0.2181;0.8751;-3.9127;4.015
23.064000;0.1904;0.8863;-3.6889;3.799
23.078000;0.1478;0.9104;-3.2866;3.414
23.083000;0.1329;0.9571;-2.7549;2.919
23.119000;0.1847;0.9338;-2.1884;2.386
23.121000;0.1605;0.8061;-1.5739;1.776
23.122000;0.0647;0.5780;-0.8144;1.001
23.128000;-0.1391;0.3600;0.0975;0.398
23.134000;-0.3793;0.2253;1.1374;1.220
23.144000;-0.5858;0.1520;1.9859;2.076
23.154000;-0.6361;0.1442;2.6128;2.693
23.164000;-0.5542;0.2279;2.9270;2.988
23.179000;-0.3995;0.3346;2.2498;2.309
23.184000;0.1211;0.6458;1.7506;1.870
23.221000;0.1117;0.5412;1.4165;1.520
23.222000;0.1804;0.3167;1.3062;1.356
23.224000;0.3922;-0.0069;1.4674;1.519
23.226000;0.4696;-0.3612;1.9852;2.072
23.234000;0.3111;-0.6038;2.7061;2.790
23.244000;0.0022;-0.7145;3.4363;3.510
23.254000;-0.1192;-0.7568;3.8241;3.900
23.264000;0.0341;-0.9172;3.9665;4.071
23.280000;0.0157;-1.2859;4.0482;4.248
23.284000;-0.2155;-1.6352;4.3291;4.633
23.323000;-0.5443;-1.9799;4.8428;5.260
23.325000;-0.7765;-2.3828;5.1654;5.741
23.326000;-0.8883;-2.3271;4.8013;5.409
23.328000;-0.8954;-1.7533;3.9013;4.370
23.334000;-0.6554;-1.1169;2.6695;2.967
23.344000;-0.1275;-0.6995;1.3582;1.533
23.353000;0.2812;-0.4711;0.0763;0.554
23.363000;0.5350;-0.2333;-0.9772;1.138
23.379000;0.8350;-0.0416;-1.7073;1.901
23.384000;1.0876;0.0093;-1.8973;2.187
23.421000;0.9434;-0.3400;-1.9349;2.179
23.422000;0.6350;-0.5597;-1.4863;1.710
23.423000;0.3166;-0.6543;-1.0852;1.306
23.425000;-0.1594;-0.7026;-0.8850;1.141
23.434000;-0.3852;-0.5363;-0.8091;1.044
23.443000;-0.3589;-0.1950;-0.8840;0.974
23.454000;-0.1373;0.1988;-1.1818;1.206
23.464000;0.0698;0.6036;-1.6082;1.719
23.480000;0.2323;0.9475;-2.2171;2.422
23.484000;0.3692;1.2980;-2.7237;3.040
23.524000;0.4209;1.5549;-3.0764;3.473
23.526000;0.4022;1.7950;-3.1207;3.623
23.527000;0.4853;2.0105;-3.0434;3.680
23.529000;0.4532;1.9489;-2.8408;3.475
23.534000;0.4492;1.8568;-2.5243;3.166
23.543000;0.3938;1.6653;-2.0411;2.664
23.554000;0.3906;1.4913;-1.5789;2.207
23.563000;0.3985;1.2471;-1.1830;1.765
23.583000;0.3530;0.8789;-0.6979;1.176
23.585000;0.3222;0.4500;-0.1963;0.587
23.622000;0.2839;0.0414;0.4724;0.553
23.624000;0.2473;-0.3199;1.2581;1.321
23.626000;0.2074;-0.4771;2.0050;2.071
23.627000;0.1420;-0.4429;2.3895;2.434
23.634000;0.0390;-0.4057;2.3601;2.395
23.644000;0.0733;-0.3983;2.2026;2.240
23.654000;0.2165;-0.4710;2.1575;2.219
23.664000;0.1472;-0.7049;2.2977;2.408
23.684000;-0.1322;-0.9877;2.5930;2.778
23.686000;-0.5310;-1.2598;3.0639;3.355
23.754000;-0.8350;-1.4817;3.4944;3.886
23.757000;-0.9991;-1.4712;3.8143;4.209
23.759000;-0.9775;-1.1321;4.1215;4.385
23.761000;-0.7705;-0.7764;3.9352;4.084
23.762000;-0.4432;-0.6684;3.2954;3.392
23.764000;-0.0650;-0.9124;2.6370;2.791
23.764000;-0.0887;-1.4454;2.2566;2.681
23.765000;-0.5980;-1.9650;2.5845;3.301
23.779000;-1.0717;-2.2469;2.9247;3.841
23.784000;-1.4525;-2.2673;3.2339;4.208
23.820000;-1.5961;-1.9532;3.2872;4.143
23.822000;-1.3195;-1.6270;2.5129;3.272
23.825000;-0.9809;-1.3646;1.2783;2.112
23.826000;-0.7492;-0.9615;0.0683;1.221
23.835000;-0.3976;-0.1757;-2.1704;2.214
23.844000;-0.2963;-0.0184;-3.0845;3.099
23.854000;-0.2754;0.0348;-3.7948;3.805
23.864000;-0.4946;-0.0879;-3.7631;3.796
23.874000;-0.6212;-0.3034;-2.9313;3.012
23.884000;-0.6945;-0.5143;-1.9328;2.117
23.936000;-0.6697;-0.6333;-1.2113;1.522
23.938000;-0.4129;-0.6047;-0.7257;1.031
23.939000;-0.1762;-0.4902;-0.4193;0.669
23.940000;-0.0665;-0.2945;-0.3682;0.476
23.941000;-0.0581;0.0089;-0.7414;0.744
23.946000;-0.1361;0.3824;-1.2744;1.338
23.954000;-0.1701;0.6682;-1.9829;2.099
23.964000;-0.0966;0.8494;-2.7210;2.852
23.974000;-0.0765;1.0585;-3.3598;3.523
23.985000;-0.0329;1.2059;-3.8695;4.053
24.022000;0.0100;1.2753;-4.1568;4.348
24.024000;0.0620;1.2626;-4.3475;4.528
24.026000;0.1504;1.2092;-4.2990;4.468
24.028000;0.2273;1.1696;-4.1909;4.357
24.035000;0.2849;1.1409;-4.0182;4.187
24.044000;0.3262;1.0555;-3.7426;3.902
24.053000;0.3686;0.8806;-3.4033;3.535
24.064000;0.4177;0.7366;-2.9224;3.043
24.074000;0.4801;0.5679;-2.2618;2.381
24.085000;0.5459;0.3923;-1.4250;1.576
24.139000;0.5437;0.2001;-0.5151;0.775
24.140000;0.4028;0.0650;0.4550;0.611
24.142000;0.2809;0.0244;1.3642;1.393
24.143000;0.2670;0.0062;2.1025;2.119
24.144000;0.2773;-0.1309;2.5979;2.616
24.146000;0.3458;-0.3224;2.8960;2.934
24.154000;0.4791;-0.5508;3.1447;3.228
24.164000;0.5089;-0.8962;3.3811;3.535
24.174000;0.4325;-1.1420;4.1664;4.342
24.186000;0.3134;-0.8853;4.6791;4.772
24.229000;0.3337;-0.6918;4.7365;4.798
24.232000;0.5879;-0.7068;4.2108;4.310
24.234000;0.7664;-0.7365;3.7477;3.896
24.236000;0.7043;-0.6983;3.4288;3.569
24.237000;0.5229;-0.8665;3.3210;3.472
24.244000;0.2651;-1.2251;3.2088;3.445
24.254000;0.0317;-1.3424;2.9077;3.203
24.264000;-0.0100;-0.9879;2.3890;2.585
24.281000;0.0822;-0.4431;1.7580;1.815
24.284000;0.3324;0.0896;0.8183;0.888
24.330000;0.4510;0.5192;-0.3116;0.755
24.332000;0.7493;0.8889;-1.6783;2.042
24.333000;1.2219;1.0517;-2.8752;3.296
24.335000;1.4201;0.9154;-3.5194;3.904
24.336000;1.4257;0.4946;-3.5303;3.839
24.344000;1.1985;-0.1241;-2.9177;3.157
24.354000;0.7410;-0.7524;-2.0370;2.294
24.364000;0.4248;-1.0148;-1.0060;1.491
24.374000;0.0122;-0.9355;-0.2826;0.977
24.385000;-0.2674;-0.6726;-0.0297;0.724
24.431000;-0.4073;-0.2799;-0.1790;0.526
24.432000;-0.3752;0.0988;-0.9620;1.037
24.433000;-0.2902;0.4126;-1.7218;1.794
24.435000;-0.2344;0.6103;-2.0612;2.162
24.436000;-0.2255;0.8286;-2.2507;2.409
24.444000;-0.2178;1.2121;-2.4653;2.756
24.454000;-0.3416;1.5995;-2.7950;3.238
24.464000;-0.5393;1.8408;-2.9107;3.486
24.474000;-0.4720;1.8973;-2.9154;3.510
24.485000;-0.5717;1.9455;-2.7396;3.408
24.526000;-0.6051;1.9464;-2.3018;3.075
24.528000;-0.2129;1.4931;-1.3084;1.997
24.529000;0.1541;1.2292;-0.6296;1.390
24.530000;0.3086;0.8848;0.0353;0.938
24.535000;0.5171;0.4913;0.8407;1.102
24.544000;0.5550;0.0536;1.6573;1.749
24.554000;0.5627;-0.2944;2.3655;2.449
24.564000;0.5136;-0.6367;2.7584;2.877
24.574000;0.5321;-0.8783;2.8191;3.000
24.584000;0.6234;-1.0643;2.6349;2.909
24.634000;0.6392;-1.2345;2.3660;2.744
24.636000;0.6079;-1.4343;2.1305;2.639
24.637000;0.4006;-1.5253;2.1468;2.664
24.638000;0.1970;-1.3729;2.3487;2.728
24.640000;0.0172;-1.0509;2.5600;2.767
24.644000;-0.0028;-0.7147;2.7439;2.835
24.654000;-0.0625;-0.5351;2.6472;2.702
24.664000;-0.0077;-0.4081;2.3797;2.414
24.674000;0.1890;-0.4619;2.0038;2.065
24.684000;0.2959;-0.8850;1.8424;2.065
24.722000;0.0788;-1.5939;2.2651;2.771
24.724000;-0.5285;-2.2344;2.8725;3.677
24.726000;-1.1742;-2.3651;3.6129;4.475
24.728000;-1.3653;-1.8266;4.2332;4.808
24.734000;-1.5270;-1.1676;3.9480;4.391
24.744000;-1.4534;-0.6901;2.5267;2.995
24.754000;-1.0196;-0.1741;1.0420;1.468
24.765000;-0.5728;0.3478;-0.1567;0.688
24.775000;-0.3888;0.5310;-1.6010;1.731
24.784000;-0.2418;0.4604;-3.2149;3.257
24.843000;-0.2479;0.2564;-4.1881;4.203
24.845000;-0.3907;-0.0396;-4.0545;4.073
24.846000;-0.4244;-0.2719;-3.0727;3.114
24.846000;-0.3170;-0.4023;-2.0383;2.102
24.847000;0.2473;-0.4736;-1.3609;1.462
24.848000;0.5611;-0.2238;-1.5043;1.621
24.854000;0.8401;0.0890;-1.7344;1.929
24.864000;1.0589;0.3411;-2.1516;2.422
24.875000;1.1168;0.4813;-2.7119;2.972
24.884000;0.9384;0.6069;-3.2718;3.457
24.940000;0.6735;0.8456;-3.7931;3.944
24.943000;0.3715;1.0443;-4.2328;4.375
24.945000;0.1963;1.1138;-4.5885;4.726
24.946000;0.2119;1.1675;-4.5959;4.747
24.948000;0.3359;1.1128;-4.3317;4.485
24.950000;0.4456;1.0772;-3.7024;3.882
24.954000;0.4423;0.9654;-2.8015;2.996
24.965000;0.3760;0.7159;-1.7917;1.966
24.973000;0.3616;0.5009;-0.8129;1.021
25.006000;0.2863;0.3403;0.2331;0.502
25.007000;0.2201;0.1880;1.3056;1.337
25.009000;0.1415;0.0463;2.3185;2.323
25.015000;0.0427;-0.0913;3.1472;3.149
25.025000;-0.0956;-0.2088;3.7787;3.786
25.034000;-0.2501;-0.2907;4.1195;4.137
25.045000;-0.3102;-0.2933;4.0964;4.119
25.053000;-0.1829;-0.2773;3.8294;3.844
25.064000;-0.0306;-0.3676;3.4966;3.516
25.074000;-0.0322;-0.5502;3.3109;3.356
25.085000;-0.1324;-0.5856;3.2866;3.341
25.129000;-0.2251;-0.3598;3.3874;3.414
25.132000;-0.1700;-0.2011;3.3838;3.394
25.133000;-0.0803;-0.2623;3.2053;3.217
25.134000;0.0604;-0.4397;3.1369;3.168
25.135000;0.0873;-0.8527;3.3331;3.442
25.145000;-0.0017;-1.6061;3.7881;4.114
25.154000;-0.1175;-2.2950;4.4621;5.019
25.164000;-0.2650;-2.4686;5.0582;5.635
25.174000;-0.3491;-1.4811;4.3528;4.611
25.184000;-0.0400;-0.8867;2.9648;3.095
25.238000;0.2216;-0.4871;1.2467;1.357
25.240000;0.6282;-0.0248;-0.4328;0.763
25.241000;0.9394;0.3392;-1.9516;2.192
25.242000;1.1384;0.4521;-3.0213;3.260
25.243000;1.2430;0.2823;-3.6355;3.852
25.250000;1.4246;-0.0873;-3.6387;3.909
25.254000;1.3048;-0.5928;-2.6983;3.055
25.264000;0.7925;-1.0751;-1.3658;1.910
25.274000;0.3720;-1.3855;-0.2819;1.462
25.284000;0.1804;-1.4323;0.5194;1.534
25.322000;0.0299;-1.2703;0.8936;1.553
25.324000;-0.1654;-0.9173;0.7158;1.175
25.325000;-0.3098;-0.4796;0.0342;0.572
25.326000;-0.2991;-0.0435;-0.9588;1.005
25.335000;-0.2463;0.3698;-1.9130;1.964
25.346000;-0.2896;0.7379;-2.9216;3.027
25.354000;-0.3345;1.1100;-3.5581;3.742
25.365000;-0.3032;1.4596;-3.9422;4.215
25.374000;-0.3542;1.6382;-4.1015;4.431
25.384000;-0.3514;1.7265;-3.8852;4.266
25.439000;-0.4013;1.7588;-3.5195;3.955
25.441000;-0.3481;1.6512;-3.0008;3.443
25.444000;-0.1232;1.4488;-2.3754;2.785
25.446000;0.1679;1.1982;-1.6552;2.050
25.448000;0.1782;0.9316;-0.9574;1.348
25.448000;0.1888;0.6569;-0.3669;0.776
25.454000;0.2208;0.3998;0.1152;0.471
25.466000;0.1814;0.1467;0.5438;0.592
25.474000;0.1592;-0.0149;0.9043;0.918
25.509000;0.2200;-0.0356;1.0936;1.116
25.511000;0.2715;0.0378;1.3174;1.346
25.511000;0.5806;0.2428;1.6270;1.744
25.515000;0.7434;0.1860;1.7293;1.891
25.524000;0.8174;0.0652;2.0349;2.194
25.534000;0.7218;-0.2883;2.3286;2.455
25.547000;0.5108;-0.7356;2.7146;2.859
25.554000;0.2148;-1.0938;3.1233;3.316
25.564000;-0.2407;-1.2078;3.5581;3.765
25.574000;-0.4056;-0.9756;3.8490;3.991
25.584000;-0.3096;-0.7013;3.6549;3.734
25.635000;-0.1036;-0.6357;2.9760;3.045
25.637000;0.2385;-0.6039;2.2616;2.353
25.638000;0.3763;-0.6951;1.8385;2.001
25.640000;0.0313;-1.1875;1.7688;2.131
25.640000;-0.5415;-1.7334;1.8292;2.578
25.645000;-1.1919;-2.0347;2.1010;3.158
25.654000;-1.5988;-2.0322;2.4115;3.536
25.664000;-1.7106;-1.8423;2.4005;3.476
25.674000;-1.6273;-1.6532;1.9713;3.044
25.685000;-1.5079;-1.4697;1.1590;2.404
25.739000;-1.2755;-1.1623;0.3494;1.761
25.740000;-1.0290;-0.8889;-0.3253;1.398
25.741000;-0.6452;-0.7285;-1.1481;1.505
25.742000;-0.4742;-0.7459;-1.6058;1.833
25.746000;-0.3576;-0.7360;-1.5821;1.781
25.746000;-0.4834;-0.7419;-1.0352;1.362
25.755000;-0.5885;-0.7288;-0.5109;1.067
25.766000;-0.3872;-0.6586;-0.2006;0.790
25.774000;-0.0789;-0.5005;-0.1092;0.518
25.807000;0.1785;-0.2808;-0.3744;0.501
25.809000;0.3046;0.0477;-0.9125;0.963
25.810000;0.3606;0.4186;-1.5443;1.640
25.814000;0.3695;0.6871;-2.3285;2.456
25.824000;0.4212;0.8856;-3.1204;3.271
25.834000;0.3327;1.1536;-4.1627;4.332
25.846000;0.3543;1.2508;-4.4380;4.625
25.854000;0.2945;1.2214;-4.5111;4.683
25.864000;0.2496;1.1621;-4.3773;4.536
25.874000;0.2788;1.1522;-4.1308;4.298
25.884000;0.3703;1.1273;-3.8207;4.001
25.939000;0.4509;1.0524;-3.4674;3.651
25.941000;0.4759;0.9644;-2.8587;3.054
25.941000;0.4122;0.8106;-2.1709;2.354
25.944000;0.3481;0.6320;-1.5140;1.677
25.946000;0.2568;0.4853;-0.9635;1.109
25.948000;0.1122;0.3843;-0.3098;0.506
25.954000;-0.0049;0.3363;0.3319;0.473
25.964000;-0.1105;0.2643;0.9259;0.969
25.974000;-0.1880;0.2124;1.4696;1.497
25.984000;-0.2265;0.2082;1.9176;1.942
26.049000;-0.2175;0.2221;2.2221;2.244
26.051000;-0.1252;0.2150;2.4356;2.448
26.052000;-0.0281;0.2020;2.6350;2.643
26.055000;0.0389;0.1402;2.7530;2.757
26.056000;0.0553;0.0218;2.8614;2.862
26.057000;-0.0208;-0.1902;3.1132;3.119
26.058000;-0.2008;-0.4491;3.3958;3.431
26.064000;-0.4396;-0.5153;3.5130;3.578
26.074000;-0.3967;-0.2560;3.3809;3.414
26.084000;-0.2143;-0.0199;2.9745;2.982
26.128000;-0.0163;0.0585;2.4834;2.484
26.130000;0.2952;-0.0390;2.2128;2.233
26.131000;0.3745;-0.3202;2.2477;2.301
26.133000;0.0935;-0.7879;2.5858;2.705
26.135000;-0.2532;-1.2634;3.2028;3.452
26.144000;-0.4093;-1.6419;3.6989;4.068
26.155000;-0.4128;-1.7557;3.6788;4.097
26.165000;0.0922;-1.0105;2.9930;3.160
26.174000;0.2668;-0.6526;1.9863;2.108
26.184000;0.5959;-0.3111;0.7439;1.003
26.194000;0.8737;-0.0201;-0.3605;0.945
26.235000;0.8560;0.0937;-1.2564;1.523
26.237000;0.7420;0.0826;-1.7115;1.867
26.238000;0.5826;-0.0410;-1.6400;1.741
26.239000;0.3885;-0.2766;-1.1602;1.254
26.244000;0.2272;-0.4220;-0.6432;0.802
26.254000;0.1717;-0.4051;-0.2768;0.520
26.264000;0.1152;-0.2802;-0.1411;0.334
26.274000;0.0532;0.0091;-0.3380;0.342
26.284000;-0.0727;0.4490;-0.8880;0.998
26.294000;0.0460;0.9132;-1.9797;2.181
26.304000;-0.0040;1.2671;-3.1439;3.390
26.372000;0.1907;1.6606;-3.9617;4.300
26.374000;0.2159;1.7876;-4.5407;4.885
26.375000;0.1932;1.8748;-4.7275;5.089
26.378000;0.2888;1.9356;-4.5960;4.995
26.379000;0.4111;1.9003;-4.2766;4.698
26.381000;0.3797;1.7194;-3.8418;4.226
26.382000;0.2840;1.5673;-3.4101;3.764
26.385000;0.2360;1.4090;-3.1345;3.445
26.395000;0.2373;1.2142;-2.8616;3.118
26.404000;0.2774;0.9817;-2.4106;2.618
26.447000;0.2682;0.6838;-1.7863;1.931
26.451000;0.2412;0.3943;-1.1518;1.241
26.453000;0.2990;0.1229;-0.6438;0.720
26.454000;0.3522;-0.1014;-0.0625;0.372
26.455000;0.4410;-0.3604;0.5004;0.758
26.464000;0.5122;-0.4985;1.2746;1.461
26.474000;0.5288;-0.6831;2.1233;2.292
26.484000;0.4591;-0.8924;2.8560;3.027
26.495000;0.2786;-1.1920;3.6333;3.834
26.529000;0.2101;-1.3547;3.8819;4.117
26.531000;0.0778;-1.5139;4.0293;4.305
26.532000;-0.1992;-1.6206;4.0158;4.335
26.534000;-0.4574;-1.5949;3.9133;4.251
26.544000;-0.7046;-1.2598;3.8502;4.112
26.554000;-0.8673;-0.7661;3.6586;3.837
26.565000;-0.5755;-0.3792;2.9881;3.067
26.574000;0.0389;-0.2257;2.1094;2.122
26.586000;0.4106;-0.2594;1.3785;1.462
26.594000;0.3477;-0.5354;1.1914;1.352
26.638000;-0.0507;-0.9813;1.7311;1.990
26.639000;-0.6312;-1.4693;2.2370;2.750
26.640000;-1.2173;-1.7248;2.6541;3.391
26.642000;-1.4380;-1.6616;2.9954;3.715
26.647000;-1.6359;-1.4842;2.9976;3.724
26.654000;-1.5206;-1.2312;2.4335;3.123
26.664000;-1.2621;-0.9567;1.3705;2.094
26.674000;-1.1754;-0.7518;0.4172;1.456
26.684000;-1.0418;-0.6002;-0.3585;1.255
26.694000;-0.8009;-0.4907;-1.3571;1.650
26.745000;-0.6009;-0.4295;-2.0156;2.147
26.747000;-0.3880;-0.3613;-2.2801;2.341
26.748000;-0.2639;-0.2261;-2.3328;2.358
26.749000;-0.1470;-0.0513;-2.1663;2.172
26.750000;0.0772;0.0769;-2.1472;2.150
26.754000;0.3959;0.2778;-2.1628;2.216
26.764000;0.6648;0.5400;-2.2536;2.411
26.774000;0.8105;0.7923;-2.4570;2.706
26.785000;0.8936;1.0047;-2.7108;3.026
26.794000;0.9463;1.1527;-3.0380;3.384
26.831000;0.9900;1.2146;-3.4003;3.744
26.834000;1.0009;1.2589;-3.6648;4.002
26.836000;0.5823;1.3907;-3.9485;4.227
26.838000;0.4676;1.4270;-3.9545;4.230
26.844000;0.5211;1.3864;-3.8982;4.170
26.854000;0.5903;1.3044;-3.6308;3.903
26.865000;0.5663;1.0889;-2.9968;3.238
26.874000;0.5087;0.7943;-2.1111;2.312
26.884000;0.5602;0.5335;-1.0467;1.302
26.934000;0.3978;0.0849;0.2310;0.468
26.935000;0.1743;-0.4389;1.4873;1.561
26.937000;-0.0659;-0.7866;2.8901;2.996
26.940000;-0.3570;-1.0513;4.2382;4.381
26.941000;-0.7230;-1.1640;5.1219;5.302
26.944000;-0.8864;-1.0627;5.3686;5.544
26.954000;-0.8110;-0.7624;4.8941;5.019
26.964000;-0.5084;-0.4005;3.8600;3.914
26.974000;-0.2668;-0.2479;2.8104;2.834
26.984000;0.0185;-0.1619;1.9731;1.980
26.994000;0.1979;-0.0987;1.4452;1.462
27.004000;0.1326;-0.1269;1.3127;1.326
27.049000;0.0071;-0.0607;1.4540;1.455
27.051000;-0.0438;0.0960;1.7832;1.786
27.051000;0.0908;0.2255;1.8729;1.889
27.052000;0.3735;0.1908;1.7618;1.811
27.054000;0.6854;-0.0426;1.5754;1.719
27.064000;0.8539;-0.4092;1.6119;1.869
27.074000;0.8097;-0.9509;1.8733;2.251
27.084000;0.5577;-1.4408;2.0472;2.565
27.093000;0.2171;-1.6142;2.0629;2.628
27.105000;-0.1193;-1.4063;1.9505;2.408
27.144000;-0.3123;-1.0174;1.4432;1.793
27.148000;-0.4867;-0.7962;0.4742;1.047
27.149000;-0.1819;-0.6038;-0.4708;0.787
27.150000;0.3081;-0.5012;-1.2200;1.354
27.154000;0.6364;-0.6612;-1.1153;1.444
27.164000;1.1894;-1.6349;-0.3128;2.046
27.174000;0.8548;-2.2088;1.2223;2.665
27.184000;0.5000;-2.6293;2.4094;3.601
27.194000;-0.0378;-2.6772;3.5143;4.418
27.205000;-0.5166;-2.4356;4.2801;4.952
27.267000;-0.7996;-2.0468;4.2980;4.827
27.269000;-0.8636;-1.5755;3.6597;4.077
27.271000;-0.6331;-1.0494;2.5493;2.829
27.272000;-0.3956;-0.4763;1.1672;1.321
27.273000;-0.1953;0.1772;-0.2799;0.385
27.273000;-0.2609;0.6829;-1.4963;1.665
27.274000;-0.4035;1.0573;-2.4508;2.699
27.284000;-0.5588;1.2669;-3.3011;3.580
27.294000;-0.5803;1.3700;-3.8244;4.104
27.305000;-0.3630;1.4887;-4.0647;4.344
27.345000;-0.0783;1.6189;-4.2124;4.513
27.347000;0.1503;1.8200;-4.5319;4.886
27.349000;0.4100;1.9547;-5.0306;5.413
27.350000;0.5716;1.8989;-5.2225;5.586
27.354000;0.7025;1.6962;-4.9286;5.259
27.366000;0.9141;1.5675;-4.3523;4.715
27.374000;1.0496;1.4975;-3.5650;4.007
27.384000;0.9967;1.1407;-3.0260;3.384
27.394000;1.0445;0.6897;-2.1061;2.450
27.404000;0.9728;0.3189;-1.2882;1.645
27.462000;0.9553;0.0598;-0.3916;1.034
27.463000;0.8638;-0.1689;0.2651;0.919
27.465000;0.7067;-0.4155;0.9347;1.243
27.466000;0.3588;-0.6238;1.2879;1.475
27.466000;0.4439;-0.8019;1.4875;1.747
27.468000;0.6332;-0.8769;1.7978;2.098
27.474000;0.8151;-1.1262;2.1516;2.562
27.484000;0.8026;-1.3750;2.5417;2.999
27.494000;0.2341;-1.7037;2.8953;3.368
27.504000;-0.0993;-1.5694;3.0104;3.396
27.550000;-0.2372;-1.2870;2.9484;3.226
27.552000;-0.0180;-0.9668;2.5791;2.754
27.553000;0.2853;-0.7466;2.0586;2.208
27.554000;0.4191;-0.7547;1.5472;1.772
27.555000;0.3968;-0.8633;1.4171;1.706
27.565000;0.1617;-1.0968;1.5243;1.885
27.574000;-0.3852;-1.4415;1.7425;2.294
27.585000;-1.2280;-1.8082;1.8706;2.877
27.593000;-1.7860;-1.8152;2.0196;3.250
27.605000;-1.8964;-1.6447;2.0412;3.235
27.650000;-1.8594;-1.6763;2.0598;3.242
27.652000;-1.8568;-1.6474;1.8533;3.098
27.654000;-1.6125;-1.5677;1.5069;2.707
27.655000;-1.1808;-1.3251;0.9456;2.011
27.656000;-0.9941;-1.1944;0.1109;1.558
27.665000;-0.9042;-0.8993;-0.8778;1.548
27.674000;-0.6523;-0.6048;-1.4579;1.708
27.684000;-0.4369;-0.4870;-1.8655;1.977
27.694000;-0.0852;-0.2593;-2.0563;2.074
27.704000;0.2168;-0.0747;-1.6667;1.682
27.747000;0.1724;-0.0036;-1.8912;1.899
27.749000;0.2956;0.2373;-1.7986;1.838
27.750000;0.4174;0.4364;-2.0207;2.109
27.750000;0.5175;0.5668;-2.2488;2.376
27.754000;0.6476;0.6976;-2.5066;2.681
27.765000;0.7028;0.8466;-2.7200;2.934
27.774000;0.7259;0.9822;-2.9167;3.162
27.784000;0.7056;1.0841;-3.3313;3.574
27.794000;0.6498;1.1657;-3.7089;3.942
27.805000;0.5759;1.2105;-4.0493;4.265
27.853000;0.6314;1.1391;-3.7601;3.979
27.855000;0.6389;0.9755;-2.9584;3.180
27.857000;0.5119;0.7891;-2.0523;2.258
27.858000;0.3301;0.5685;-1.1663;1.339
27.859000;0.1851;0.3287;-0.3794;0.535
27.865000;0.0316;0.1206;0.4806;0.497
27.874000;-0.0731;-0.0685;1.2881;1.292
27.884000;-0.2074;-0.2276;2.0117;2.035
27.894000;-0.3732;-0.2799;2.6635;2.704
27.904000;-0.4800;-0.2910;3.0973;3.148
27.959000;-0.4701;-0.2460;3.2639;3.307
27.961000;-0.3642;-0.2318;3.1897;3.219
27.962000;-0.3241;-0.2175;2.8520;2.879
27.966000;-0.2768;-0.1626;2.4305;2.452
27.967000;-0.2187;-0.1559;1.9564;1.975
27.968000;-0.1312;-0.2194;1.6068;1.627
27.974000;-0.0125;-0.3547;1.3219;1.369
27.987000;-0.0065;-0.4074;1.2213;1.287
27.994000;0.0060;-0.2978;1.1778;1.215
28.043000;0.0825;-0.2016;1.3362;1.354
28.044000;0.2618;-0.1844;1.4596;1.494
28.045000;0.5063;-0.2905;1.4432;1.557
28.046000;0.5495;-0.5121;1.4486;1.632
28.048000;0.3784;-0.7863;1.6649;1.880
28.054000;0.1674;-1.1820;2.1616;2.469
28.065000;-0.1192;-1.6100;2.7901;3.224
28.074000;-0.2867;-1.8107;3.2235;3.708
28.084000;-0.4294;-1.6037;3.3911;3.776
28.094000;-0.5866;-1.2557;3.1014;3.397
28.104000;-0.5129;-0.8976;2.5124;2.717
28.154000;-0.2106;-0.4869;1.8002;1.877
28.156000;0.1242;-0.2206;1.2389;1.265
28.157000;0.3798;-0.2649;0.6502;0.798
28.158000;0.5475;-0.5288;0.4112;0.865
28.159000;0.2656;-1.1851;1.3252;1.798
28.166000;-0.1806;-1.3300;1.8707;2.302
28.173000;-0.2464;-1.3312;2.0943;2.494
28.184000;-0.2107;-1.2643;1.9302;2.317
28.194000;-0.3428;-1.0282;1.6319;1.959
28.205000;-0.3004;-0.7004;0.7802;1.091
28.250000;-0.1565;-0.3261;-0.3880;0.530
28.251000;-0.1990;0.0948;-1.8225;1.836
28.252000;-0.1343;0.4937;-2.9845;3.028
28.254000;-0.0493;0.7148;-3.9983;4.062
28.255000;-0.0625;0.9038;-4.6541;4.741
28.265000;0.0289;1.0326;-4.7952;4.905
28.274000;0.0367;0.9963;-4.6009;4.708
28.285000;0.0307;0.9320;-4.1742;4.277
28.294000;0.0486;0.8958;-3.8169;3.921
28.304000;0.1121;0.8941;-3.5446;3.657
28.364000;0.1351;0.8415;-3.2805;3.389
28.366000;0.0544;0.7485;-2.9278;3.022
28.367000;-0.0667;0.6455;-2.5257;2.608
28.368000;-0.0697;0.4796;-2.1127;2.168
28.370000;-0.0181;0.2340;-1.5317;1.550
28.371000;0.0364;-0.0758;-0.9026;0.907
28.374000;-0.0490;-0.3587;-0.2241;0.426
28.384000;-0.0931;-0.5898;0.4581;0.753
28.394000;0.0471;-0.7222;1.4230;1.596
28.404000;0.0842;-0.9293;2.1210;2.317
28.414000;-0.0348;-1.0014;2.4587;2.655
28.451000;0.0157;-0.8433;2.5678;2.703
28.453000;0.0391;-0.6761;2.4147;2.508
28.454000;-0.0272;-0.6261;1.9591;2.057
28.455000;-0.0317;-0.6673;1.5659;1.702
28.467000;-0.0590;-0.7873;1.3490;1.563
28.474000;-0.2193;-0.9419;1.2604;1.589
28.484000;-0.3927;-0.9967;1.4288;1.786
28.494000;-0.2699;-0.9981;1.7583;2.040
28.503000;-0.0021;-1.2502;1.9641;2.328
28.514000;0.1778;-1.3711;2.5188;2.873
28.563000;0.3575;-1.3745;3.0345;3.350
28.565000;0.6088;-1.5276;3.4778;3.847
28.567000;0.6606;-1.9880;3.7207;4.270
28.569000;0.3215;-2.4457;3.8543;4.576
28.570000;-0.3556;-2.6281;4.0944;4.878
28.574000;-1.1311;-2.5229;3.9969;4.860
28.584000;-0.9747;-2.6672;4.0071;4.911
28.594000;-1.0560;-2.5427;3.4417;4.408
28.604000;-0.5525;-1.9853;2.8217;3.494
28.651000;-0.4084;-1.9082;2.1102;2.874
28.653000;-0.1203;-1.7000;1.5685;2.316
28.655000;-0.2154;-1.6092;0.6607;1.753
28.657000;-0.6716;-1.5332;-0.3913;1.719
28.658000;-1.0183;-1.4043;-1.2208;2.121
28.664000;-1.0871;-1.3163;-1.8712;2.533
28.674000;-1.0147;-1.2409;-2.2023;2.724
28.690000;-1.0589;-1.2610;-2.2006;2.748
28.694000;-1.1255;-1.3484;-1.9447;2.620
28.744000;-0.9083;-1.4027;-1.4780;2.231
28.746000;-0.5404;-1.3206;-1.0362;1.763
28.747000;-0.3936;-1.2852;-0.4640;1.422
28.749000;-0.3267;-1.2456;-0.2640;1.315
28.750000;-0.1337;-1.0115;-0.2920;1.061
28.754000;0.0811;-0.7104;-0.6199;0.946
28.765000;0.2284;-0.4704;-1.0830;1.203
28.774000;0.3725;-0.2727;-1.6708;1.733
28.788000;0.6401;-0.1353;-2.1480;2.245
28.794000;0.8711;-0.0733;-2.3602;2.517
28.834000;1.0686;-0.1913;-2.3935;2.628
28.836000;1.3565;-0.5938;-1.5781;2.164
28.836000;1.3655;-0.7776;-0.9158;1.819
28.838000;1.3122;-0.8981;-0.3155;1.621
28.844000;1.2489;-1.0125;0.1434;1.614
28.855000;1.1925;-1.1393;0.4298;1.704
28.865000;1.1150;-1.1472;0.6789;1.738
28.875000;0.8956;-1.0220;0.6765;1.518
28.888000;0.6311;-0.8263;0.4718;1.142
28.894000;0.4230;-0.5613;0.2932;0.761
28.933000;0.3322;-0.3352;0.1637;0.500
28.935000;0.2321;-0.1826;-0.0136;0.296
28.936000;0.1401;-0.0025;-0.1353;0.195
28.937000;-0.0768;0.0549;-0.0710;0.118
28.944000;-0.2278;-0.1035;-0.0288;0.252
28.954000;-0.3715;-0.3111;0.0225;0.485
28.964000;-0.4955;-0.4992;0.1907;0.729
28.974000;-0.5267;-0.6203;0.3534;0.887
28.987000;-0.3711;-0.6663;0.6218;0.984
28.994000;-0.2699;-0.6085;0.7442;0.998
29.039000;-0.2705;-0.4664;0.6223;0.823
29.041000;-0.2504;-0.2684;0.3161;0.484
29.042000;-0.1840;-0.1512;0.2866;0.373
29.042000;-0.1549;-0.0828;0.0819;0.194
29.044000;-0.0317;0.0299;-0.1339;0.141
29.054000;0.0403;-0.0000;-0.3651;0.367
29.064000;0.0895;0.0400;-0.6261;0.634
29.074000;0.0936;0.1021;-1.0196;1.029
29.087000;-0.1789;0.1605;-1.2776;1.300
29.094000;-0.6643;0.1809;-1.4421;1.598
29.130000;-0.9661;0.2513;-1.5345;1.831
29.132000;-0.9666;0.3191;-1.5812;1.881
29.132000;-0.7193;0.3141;-1.5907;1.774
29.134000;-0.4065;0.2351;-1.3891;1.466
29.144000;-0.1848;0.1223;-1.0855;1.108
29.154000;-0.1941;0.0153;-0.0897;0.214
29.163000;-0.3922;-0.1941;0.4633;0.637
29.174000;-0.6287;-0.4205;0.8753;1.157
29.187000;-0.7756;-0.6042;1.2157;1.564
29.195000;-0.8049;-0.7521;1.4892;1.852
29.238000;-0.7393;-0.7499;1.6048;1.919
29.240000;-0.7058;-0.6154;1.6090;1.862
29.241000;-0.6873;-0.3779;1.2635;1.487
29.242000;-0.5758;-0.0596;0.6769;0.891
29.244000;-0.4801;0.2191;0.0971;0.537
29.254000;-0.4445;0.4145;-0.3886;0.721
29.263000;-0.3644;0.5561;-0.8064;1.045
29.274000;-0.2920;0.6476;-1.0889;1.300
29.289000;-0.2602;0.7021;-1.2412;1.450
29.294000;-0.2464;0.7009;-1.1458;1.366
29.336000;-0.1757;0.6714;-0.8253;1.078
29.339000;-0.1159;0.5611;-0.4281;0.715
29.339000;-0.0616;0.4208;0.0172;0.426
29.340000;-0.0017;0.2849;0.3333;0.438
29.344000;0.0615;0.1930;0.5621;0.597
29.355000;0.1529;0.1383;0.6891;0.719
29.365000;0.1848;0.1162;0.8269;0.855
29.375000;0.1511;0.0377;0.8977;0.911
29.389000;0.0901;-0.0515;0.9063;0.912
29.394000;0.1003;-0.0640;0.8839;0.892
29.440000;0.0741;-0.0334;0.8173;0.821
29.442000;0.0477;0.0080;0.6776;0.679
29.443000;0.0490;0.1041;0.5019;0.515
29.444000;0.0461;0.2016;0.2936;0.359
29.444000;0.0731;0.2821;0.0971;0.307
29.454000;0.0890;0.2982;0.0023;0.311
29.463000;0.0963;0.3080;-0.0745;0.331
29.474000;0.1140;0.3333;-0.0543;0.356
29.490000;0.1263;0.3095;-0.0017;0.334
29.494000;0.1432;0.3194;0.0976;0.363
29.533000;0.1848;0.3339;0.2112;0.436
29.534000;0.2600;0.3713;0.3236;0.557
29.535000;0.2873;0.3927;0.4166;0.641
29.536000;0.3299;0.4377;0.5561;0.781
29.543000;0.3649;0.4615;0.5660;0.816
29.554000;0.4082;0.5261;0.6427;0.925
29.564000;0.4405;0.5510;0.7491;1.029
29.574000;0.4285;0.5018;0.8518;1.077
29.587000;0.4967;0.5158;0.8825;1.136
29.594000;0.5216;0.4913;0.8317;1.098
29.642000;0.4664;0.4887;0.7078;0.978
29.644000;0.4441;0.5360;0.5540;0.890
29.644000;0.4175;0.5528;0.3619;0.782
29.645000;0.3945;0.5255;0.1460;0.673
29.646000;0.3503;0.4858;-0.0304;0.600
29.655000;0.3351;0.4913;-0.1743;0.620
29.663000;0.3009;0.4541;-0.2619;0.604
29.674000;0.2859;0.3871;-0.3947;0.622
29.689000;0.2536;0.2787;-0.4077;0.555
29.694000;0.2373;0.1673;-0.4313;0.520
29.732000;0.2061;0.0962;-0.4092;0.468
29.735000;0.1130;0.0257;-0.3582;0.377
29.736000;0.0428;-0.0801;-0.2723;0.287
29.737000;0.0075;-0.1677;-0.1504;0.225
29.744000;-0.0012;-0.2011;0.0123;0.201
29.754000;-0.0287;-0.1983;0.0399;0.204
29.764000;-0.0567;-0.1421;0.0255;0.155
29.774000;-0.1175;-0.0890;-0.0295;0.150
29.788000;-0.1668;-0.0703;-0.1084;0.211
29.794000;-0.1774;0.0001;-0.2377;0.297
29.842000;-0.2186;0.0913;-0.1012;0.258
29.844000;-0.2347;0.1175;0.0639;0.270
29.844000;-0.1731;0.2312;0.0772;0.299
29.845000;-0.1567;0.3165;0.0174;0.354
29.846000;-0.1107;0.3428;0.0642;0.366
29.854000;-0.0885;0.4117;0.1709;0.454
29.864000;-0.0322;0.4641;0.2286;0.518
29.874000;-0.0133;0.4914;0.2503;0.552
29.891000;-0.0001;0.5097;0.3342;0.610
29.894000;0.0325;0.5201;0.3701;0.639
29.940000;0.0364;0.4928;0.4071;0.640
29.942000;0.0558;0.4566;0.5278;0.700
29.943000;0.0816;0.4337;0.5958;0.741
29.944000;0.0292;0.4271;0.5859;0.726
29.945000;-0.0345;0.4595;0.5113;0.688
29.954000;-0.1224;0.4167;0.4104;0.598
29.964000;-0.2159;0.3620;0.3359;0.539
29.975000;-0.2425;0.3494;0.3033;0.522
29.988000;-0.2624;0.2731;0.2925;0.479
29.994000;-0.3300;0.1931;0.3032;0.488
30.052000;-0.3524;0.1957;0.2505;0.475
30.054000;-0.4002;0.2110;0.2373;0.511
30.055000;-0.4146;0.2548;0.2157;0.532
30.056000;-0.3876;0.2714;0.2108;0.518
30.056000;-0.3906;0.3095;0.2179;0.544
30.058000;-0.3752;0.3611;0.1171;0.534
30.064000;-0.3682;0.3965;0.0080;0.541
30.074000;-0.3577;0.4169;-0.1202;0.562
30.092000;-0.2995;0.4384;-0.1718;0.558
30.095000;-0.3129;0.3914;-0.1778;0.532
30.138000;-0.3014;0.3374;-0.1934;0.492
30.139000;-0.2442;0.2933;-0.2017;0.432
30.140000;-0.1787;0.2001;-0.1586;0.312
30.141000;-0.1265;0.1084;-0.0425;0.172
30.144000;-0.1155;-0.0217;0.2185;0.248
30.154000;-0.1108;-0.0846;0.3491;0.376
30.164000;-0.1915;-0.1687;0.3994;0.474
30.175000;-0.1984;-0.1952;0.4606;0.538
30.190000;-0.2016;-0.1779;0.4321;0.509
30.194000;-0.2460;-0.1854;0.3078;0.436
30.246000;-0.2296;-0.1246;0.1752;0.315
30.247000;-0.2634;-0.0990;0.0331;0.283
30.249000;-0.2741;-0.0400;-0.0553;0.282
30.252000;-0.3028;0.0041;-0.1376;0.333
30.254000;-0.3516;0.0120;-0.1470;0.381
30.256000;-0.3116;0.0293;-0.0786;0.323
30.264000;-0.2518;0.0244;-0.0772;0.264
30.275000;-0.2347;0.0436;-0.1009;0.259
30.291000;-0.1965;0.0856;-0.1066;0.239
30.294000;-0.1949;0.1047;-0.1674;0.277
30.337000;-0.1989;0.1502;-0.1540;0.293
30.339000;-0.1696;0.1828;-0.1537;0.293
30.339000;-0.1536;0.1882;-0.1031;0.264
30.340000;-0.0922;0.1879;-0.0226;0.211
30.345000;-0.0878;0.1822;-0.0128;0.203
30.354000;-0.0855;0.1650;0.0485;0.192
30.364000;-0.0077;0.1395;0.0762;0.159
30.375000;-0.0218;0.1040;0.0907;0.140
30.389000;0.0102;0.0938;0.1482;0.176
30.394000;0.0083;0.0810;0.1376;0.160
30.440000;-0.0496;0.0469;0.2047;0.216
30.441000;-0.0316;0.0385;0.1497;0.158
30.442000;0.0088;0.0277;0.0313;0.043
30.442000;0.0461;0.0388;-0.0056;0.061
30.444000;0.0725;0.0463;-0.0127;0.087
30.454000;0.0300;-0.0154;-0.0222;0.040
30.464000;-0.0160;-0.0456;0.0426;0.064
30.474000;0.0681;-0.0626;0.2545;0.271
30.484000;0.1604;-0.0922;0.3874;0.429
30.495000;0.1992;-0.0456;0.4592;0.503
30.539000;0.2147;0.0478;0.4280;0.481
30.540000;0.2021;0.1243;0.3501;0.423
30.542000;0.1861;0.1989;0.2745;0.387
30.543000;0.1592;0.2005;0.2683;0.371
30.545000;0.2032;0.1772;0.3447;0.438
30.554000;0.2927;0.1238;0.4570;0.557
30.564000;0.3359;0.0950;0.5837;0.680
30.574000;0.3695;0.1044;0.6349;0.742
30.584000;0.4164;0.1710;0.6897;0.824
30.594000;0.4180;0.2030;0.6869;0.829
30.640000;0.3838;0.2214;0.6661;0.800
30.641000;0.3641;0.2452;0.5938;0.738
30.642000;0.2880;0.2361;0.5634;0.675
30.643000;0.2262;0.2167;0.5606;0.642
30.644000;0.2262;0.1661;0.5220;0.593
30.654000;0.2741;0.1339;0.4750;0.565
30.663000;0.2609;0.1020;0.4351;0.518
30.674000;0.2121;0.0393;0.3331;0.397
30.684000;0.1867;0.0049;0.2335;0.299
30.693000;0.1522;-0.0026;0.1339;0.203
30.733000;0.1181;-0.0184;0.0583;0.133
30.735000;0.1344;-0.0317;-0.0185;0.139
30.736000;0.1178;-0.0436;-0.0773;0.148
30.737000;0.0851;-0.0467;-0.0822;0.127
30.744000;0.0157;-0.1016;-0.0392;0.110
30.754000;-0.0491;-0.1021;-0.0224;0.116
30.764000;-0.0554;-0.1329;-0.0643;0.158
30.774000;-0.0627;-0.1574;-0.0714;0.184
30.784000;-0.0835;-0.1733;-0.0415;0.197
30.795000;-0.1155;-0.1831;0.0100;0.217
30.844000;-0.1281;-0.1675;0.0628;0.220
30.845000;-0.1507;-0.1406;0.0245;0.208
30.846000;-0.1476;-0.1088;-0.0592;0.193
30.847000;-0.0520;-0.0673;-0.1944;0.212
30.847000;-0.0054;-0.0450;-0.2481;0.252
30.854000;-0.0406;-0.0437;-0.2780;0.284
30.864000;-0.0716;-0.0879;-0.1833;0.216
30.874000;-0.0793;-0.1324;0.0789;0.173
30.884000;-0.0527;-0.1553;0.2657;0.312
30.894000;-0.0304;-0.1517;0.3460;0.379
30.931000;-0.0379;-0.1281;0.3365;0.362
30.933000;-0.0477;-0.0768;0.2206;0.238
30.935000;0.0236;0.0077;0.0724;0.077
30.936000;0.0448;0.0414;-0.0949;0.113
30.944000;0.0138;0.0459;-0.1258;0.135
30.955000;0.1419;0.0474;-0.2262;0.271
30.964000;0.1455;-0.0009;-0.2381;0.279
30.974000;0.1109;0.0107;-0.1207;0.164
30.984000;0.0075;-0.0248;-0.0345;0.043
30.994000;-0.0393;-0.0608;0.1846;0.198
31.047000;0.0136;-0.0604;0.2697;0.277
31.049000;0.1111;-0.0837;0.2016;0.245
31.050000;0.1509;-0.1126;0.1731;0.256
31.051000;0.1394;-0.1271;0.1625;0.249
31.051000;0.1085;-0.1291;0.0981;0.195
31.054000;0.1409;-0.0841;-0.0550;0.173
31.064000;0.1557;-0.0869;-0.1315;0.222
31.074000;0.0948;-0.0734;-0.0764;0.142
31.084000;0.0630;-0.1058;-0.0692;0.141
31.095000;0.0250;-0.1268;-0.0357;0.134
31.135000;0.0567;-0.0710;-0.0260;0.094
31.138000;0.1029;0.0147;-0.1336;0.169
31.138000;0.1183;0.0737;-0.2340;0.272
31.139000;0.1252;0.0980;-0.3176;0.355
31.144000;0.2171;0.0830;-0.0542;0.239
31.154000;0.3106;0.0692;0.2319;0.394
31.164000;0.3338;0.0728;0.4748;0.585
31.174000;0.2938;0.1053;0.5465;0.629
31.184000;0.2123;0.1374;0.6973;0.742
31.194000;0.0959;0.1668;0.7476;0.772
31.236000;0.0501;0.2106;0.6471;0.682
31.238000;0.0017;0.2580;0.4653;0.532
31.238000;-0.0548;0.2929;0.2106;0.365
31.239000;-0.1070;0.2971;0.0938;0.329
31.244000;-0.1263;0.2712;0.0512;0.303
31.254000;-0.1586;0.2354;0.1020;0.302
31.264000;-0.0975;0.2376;0.1504;0.298
31.274000;-0.0421;0.2253;0.2214;0.319
31.284000;-0.0014;0.1777;0.3079;0.356
31.294000;0.0025;0.1621;0.4123;0.443
31.334000;0.0215;0.1797;0.4999;0.532
31.336000;0.0274;0.1646;0.4641;0.493
31.337000;0.1005;0.1855;0.4437;0.491
31.338000;0.1452;0.1734;0.3815;0.443
31.344000;0.1035;0.1775;0.2654;0.336
31.354000;0.0657;0.2141;0.2271;0.319
31.364000;0.0803;0.1987;0.2582;0.336
31.376000;0.1083;0.1552;0.4029;0.445
31.383000;0.1643;0.1102;0.5415;0.576
31.394000;0.1930;0.0848;0.6609;0.694
31.440000;0.1824;0.0717;0.7324;0.758
31.441000;0.1621;0.1046;0.6963;0.723
31.442000;0.1328;0.1354;0.4986;0.533
31.443000;0.0889;0.1588;0.3513;0.396
31.444000;0.0877;0.1730;0.1956;0.275
31.454000;0.0510;0.1681;0.0782;0.192
31.464000;0.0323;0.1595;0.0842;0.183
31.474000;-0.0947;0.1155;0.1034;0.182
31.484000;-0.1177;0.0849;0.0796;0.166
31.494000;-0.1571;0.0425;0.0809;0.182
31.543000;-0.2103;-0.0120;0.0716;0.222
31.545000;-0.2579;-0.0446;0.1223;0.289
