time;ax;ay;az;aT
0.002000;0.2117;0.1589;0.5097;0.574
0.012000;0.2998;0.0588;0.4108;0.512
0.015000;0.2538;0.0521;0.4277;0.500
0.024000;0.2087;0.1164;0.6098;0.655
0.034000;0.2320;0.1837;0.6874;0.748
0.044000;0.2627;0.2521;0.6259;0.724
0.055000;0.2147;0.3309;0.4919;0.631
0.064000;0.1190;0.3358;0.2716;0.448
0.074000;0.0680;0.3093;-0.0548;0.321
0.084000;0.0289;0.2617;-0.2769;0.382
0.094000;0.0156;0.2115;-0.3585;0.417
0.106000;-0.0029;0.1358;-0.3714;0.395
0.114000;0.0129;0.0731;-0.2867;0.296
0.124000;0.0560;0.0519;-0.1580;0.176
0.134000;0.1345;0.0706;-0.0286;0.155
0.144000;0.2185;0.1177;0.1138;0.273
0.155000;0.3209;0.1490;0.2181;0.416
0.164000;0.3689;0.1450;0.2308;0.459
0.174000;0.3299;0.1251;0.2789;0.450
0.184000;0.2512;0.0679;0.3372;0.426
0.195000;0.1723;0.0220;0.3541;0.394
0.212000;0.1082;0.0037;0.3797;0.395
0.214000;0.1021;0.0072;0.4064;0.419
0.225000;0.1428;0.0479;0.3481;0.379
0.234000;0.2017;0.0671;0.2911;0.360
0.244000;0.2002;0.0902;0.2615;0.341
0.255000;0.1077;0.1084;0.2750;0.315
0.264000;0.0618;0.1355;0.2624;0.302
0.274000;0.0726;0.1654;0.1902;0.262
0.284000;0.1162;0.2124;0.0991;0.262
0.294000;0.0547;0.0932;0.0343;0.113
0.313000;-0.0966;-0.0501;0.2097;0.236
0.315000;-0.1967;-0.1678;0.4135;0.488
0.324000;-0.2068;-0.2635;0.5030;0.604
0.334000;-0.1970;-0.2862;0.6078;0.700
0.344000;-0.2265;-0.2154;0.7545;0.817
0.355000;-0.2317;-0.1246;0.6311;0.684
0.364000;-0.2292;-0.0337;0.3842;0.449
0.375000;-0.2346;0.0107;0.1599;0.284
0.385000;-0.2136;0.0253;-0.0040;0.215
0.394000;-0.1818;-0.0155;-0.0432;0.188
0.412000;-0.1579;-0.0724;-0.0646;0.185
0.414000;-0.1608;-0.1246;0.0058;0.203
0.424000;-0.1856;-0.2114;0.1488;0.318
0.434000;-0.2443;-0.2659;0.3007;0.470
0.444000;-0.3219;-0.2714;0.3183;0.528
0.455000;-0.3979;-0.2562;0.2125;0.519
0.464000;-0.3755;-0.1958;0.0961;0.434
0.475000;-0.2970;-0.1487;0.0136;0.332
0.484000;-0.2003;-0.0807;-0.0539;0.223
0.494000;-0.1514;-0.0325;-0.0713;0.170
0.519000;-0.1528;-0.0726;-0.0167;0.170
0.521000;-0.1371;-0.1150;0.0595;0.189
0.525000;-0.1788;-0.1345;0.1293;0.258
0.534000;-0.2424;-0.1832;0.1384;0.334
0.545000;-0.2770;-0.2011;0.1190;0.362
0.556000;-0.2735;-0.2087;0.0773;0.353
0.564000;-0.2404;-0.1895;0.1078;0.325
0.575000;-0.2009;-0.1667;0.2361;0.352
0.584000;-0.1485;-0.1064;0.2701;0.326
0.595000;-0.0730;0.0002;0.1721;0.187
0.623000;0.0340;0.0625;0.0859;0.112
0.625000;0.1499;0.0928;-0.0856;0.196
0.627000;0.1234;0.0892;-0.0878;0.176
0.636000;0.0186;0.0080;-0.0327;0.038
0.645000;-0.0898;-0.1421;0.1125;0.202
0.656000;-0.1301;-0.2509;0.2293;0.364
0.665000;-0.0806;-0.2214;0.2737;0.361
0.675000;0.1050;-0.0743;0.2822;0.310
0.685000;0.2830;0.0906;0.1395;0.328
0.695000;0.4064;0.2601;-0.0171;0.483
0.712000;0.4624;0.3644;-0.0148;0.589
0.715000;0.4948;0.3893;0.0192;0.630
0.726000;0.4670;0.3449;0.0308;0.581
0.734000;0.3360;0.2743;-0.0339;0.435
0.744000;0.1788;0.2256;-0.2519;0.382
0.757000;0.0749;0.2317;-0.6372;0.682
0.764000;-0.0510;0.1569;-0.8207;0.837
0.774000;-0.1651;0.0689;-0.6717;0.695
0.784000;-0.2343;-0.0016;-0.3370;0.410
0.794000;-0.2098;0.0020;-0.2882;0.357
0.817000;-0.0907;0.0938;-0.5404;0.556
0.819000;0.1236;0.3494;-0.8928;0.967
0.825000;0.3231;0.5639;-1.2507;1.409
0.834000;0.1981;0.4891;-1.0771;1.199
0.845000;-0.0981;0.0567;-0.3916;0.408
0.856000;0.0675;-0.0498;0.4911;0.498
0.864000;0.0163;-0.1231;1.3164;1.322
0.875000;0.2930;-0.0158;1.1938;1.229
0.884000;0.4280;0.1125;1.3233;1.395
0.894000;0.1690;0.0132;1.6803;1.689
0.904000;0.0904;-0.1036;1.7151;1.721
0.916000;0.4979;0.2254;1.5077;1.604
0.924000;0.9539;0.6315;0.7243;1.354
0.934000;1.0744;0.7773;-0.3532;1.372
0.944000;0.5483;0.5532;-0.7646;1.091
0.955000;-0.7722;-0.3368;-0.0047;0.842
0.964000;-1.0678;-0.7482;0.3058;1.339
0.975000;-1.1364;-0.8897;0.3297;1.480
0.984000;-1.1302;-0.8863;0.2542;1.459
0.994000;-1.0219;-0.7741;0.0807;1.284
1.010000;-0.7752;-0.6354;-0.1566;1.014
1.015000;-0.5651;-0.4847;-0.5077;0.901
1.025000;-0.4930;-0.3376;-0.9569;1.128
1.034000;-0.5419;-0.2714;-0.9836;1.155
1.044000;-0.5411;-0.2107;-0.6372;0.862
1.055000;-0.4206;-0.1614;-0.4215;0.617
1.064000;-0.2270;-0.1460;0.1015;0.288
1.075000;-0.0485;-0.2049;0.3327;0.394
1.084000;0.2131;-0.1727;0.6765;0.730
1.095000;0.4649;-0.0493;1.3594;1.438
1.105000;0.5967;-0.0056;1.3922;1.515
1.115000;0.6867;0.1830;0.9495;1.186
1.131000;0.6831;0.4742;0.4541;0.947
1.134000;0.5718;0.5875;0.1272;0.830
1.144000;0.3998;0.5114;0.0683;0.653
1.154000;0.2472;0.3541;0.3904;0.582
1.165000;0.1037;0.1111;0.7488;0.764
1.176000;-0.0565;-0.1998;1.0733;1.093
1.185000;-0.3308;-0.3894;1.3182;1.414
1.195000;-0.5000;-0.6398;1.1639;1.419
1.205000;-0.5288;-0.7356;0.7000;1.145
1.215000;-0.4570;-0.6297;0.2631;0.821
1.232000;-0.2716;-0.3478;-0.0181;0.442
1.236000;-0.0297;-0.0875;-0.3037;0.318
1.245000;0.1919;0.1638;-0.4477;0.514
1.255000;0.3794;0.3483;-0.4087;0.658
1.264000;0.3855;0.2884;-0.2222;0.530
1.275000;0.2567;0.0443;-0.0216;0.261
1.284000;0.1197;0.0353;0.2265;0.259
1.294000;0.1525;0.0619;0.4450;0.474
1.306000;0.2805;0.1078;0.4140;0.512
1.316000;0.4068;0.1706;0.2494;0.507
1.332000;0.4223;0.1911;0.1482;0.487
1.335000;0.4308;0.2027;0.0441;0.478
1.345000;0.4066;0.1764;0.0136;0.443
1.355000;0.4080;0.1380;-0.1248;0.448
1.364000;0.3926;0.1728;-0.4585;0.628
1.376000;0.2781;0.1848;-0.7186;0.792
1.386000;0.2267;0.2183;-0.8104;0.869
1.395000;0.2022;0.2393;-0.7735;0.835
1.405000;0.1901;0.2428;-0.4751;0.566
1.415000;0.2087;0.1908;0.0350;0.285
1.432000;0.2113;0.0897;0.4941;0.545
1.436000;0.2146;0.0242;0.7240;0.756
1.445000;0.2240;-0.0192;0.8227;0.853
1.455000;0.1859;-0.0608;0.7282;0.754
1.464000;0.1184;-0.0714;0.5314;0.549
1.475000;-0.0145;-0.0921;0.4311;0.441
1.484000;-0.0453;-0.0238;0.2785;0.283
1.495000;0.0191;0.1079;0.0028;0.110
1.505000;0.1338;0.2400;-0.1391;0.308
1.515000;0.2796;0.3770;-0.2614;0.537
1.536000;0.4194;0.4661;-0.2138;0.662
1.539000;0.5250;0.4654;-0.0589;0.704
1.546000;0.4838;0.4227;0.1589;0.662
1.555000;0.3159;0.3493;0.4076;0.623
1.565000;0.1482;0.2019;0.4716;0.534
1.576000;0.0083;0.0555;0.3602;0.364
1.586000;-0.0717;0.0006;0.2388;0.249
1.595000;-0.0692;-0.0260;0.0461;0.087
1.605000;-0.0204;0.0101;-0.1766;0.178
1.616000;0.1134;0.1698;-0.2139;0.296
1.634000;0.2167;0.2263;-0.0717;0.321
1.636000;0.3126;0.2710;0.0041;0.414
1.649000;0.3175;0.2653;0.0279;0.415
1.655000;0.2560;0.2061;0.0728;0.337
1.665000;0.1783;0.0831;0.1511;0.248
1.676000;0.1048;-0.0677;0.0964;0.158
1.685000;-0.0196;-0.1784;0.0246;0.181
1.695000;-0.1191;-0.1787;-0.0008;0.215
1.705000;-0.0794;-0.0718;0.0498;0.118
1.718000;0.0030;0.0466;0.2128;0.218
1.738000;0.0995;0.1228;0.2553;0.300
1.740000;0.0910;0.1390;0.1818;0.246
1.747000;-0.0171;0.1108;0.0405;0.119
1.755000;-0.1651;-0.0042;-0.1300;0.210
1.765000;-0.2821;-0.1499;-0.3660;0.486
1.776000;-0.3661;-0.1964;-0.5494;0.689
1.785000;-0.4131;-0.1447;-0.5116;0.673
1.797000;-0.3886;-0.0766;-0.3442;0.525
1.805000;-0.3273;-0.0031;-0.1464;0.359
1.815000;-0.2711;0.0509;0.0487;0.280
1.833000;-0.2596;0.0537;0.1519;0.306
1.836000;-0.2331;0.0437;0.2041;0.313
1.852000;-0.1999;0.0456;0.1844;0.276
1.854000;-0.1099;0.0444;0.0867;0.147
1.864000;-0.0780;0.0523;-0.0041;0.094
1.877000;-0.1393;0.0394;-0.0773;0.164
1.884000;-0.2311;-0.0050;-0.0825;0.245
1.894000;-0.2640;-0.0402;-0.0318;0.269
1.904000;-0.2483;-0.0538;-0.0314;0.256
1.915000;-0.2083;-0.0531;0.0026;0.215
1.929000;-0.1704;-0.0205;0.0702;0.185
1.935000;-0.1255;-0.0247;0.0987;0.162
1.945000;-0.0998;-0.0312;-0.0555;0.118
1.954000;-0.0386;-0.0098;-0.1891;0.193
1.965000;-0.0174;0.0366;-0.2842;0.287
1.976000;-0.0113;0.1014;-0.2419;0.263
1.985000;-0.0032;0.1296;-0.0830;0.154
1.995000;0.0219;0.1406;0.0644;0.156
2.004000;-0.0110;0.1170;0.2508;0.277
2.015000;-0.0336;0.1248;0.3832;0.404
2.036000;-0.0417;0.1166;0.4129;0.431
2.037000;0.0202;0.1573;0.3053;0.344
2.049000;0.0893;0.2203;0.1638;0.289
2.054000;0.1555;0.3096;0.0012;0.346
2.064000;0.1563;0.3454;-0.0510;0.383
2.075000;0.1038;0.3200;-0.0492;0.340
2.084000;0.0115;0.2698;0.0159;0.271
2.095000;-0.0788;0.1834;0.2171;0.295
2.104000;-0.1379;0.0536;0.4139;0.440
2.114000;-0.1515;-0.0149;0.4999;0.523
2.126000;-0.1433;0.0110;0.5437;0.562
2.134000;-0.1041;0.0232;0.5645;0.574
2.144000;-0.0874;0.0212;0.5158;0.524
2.154000;-0.0815;0.0513;0.3838;0.396
2.164000;-0.0945;0.0931;0.2441;0.278
2.175000;-0.0979;0.1248;0.1170;0.197
2.184000;-0.1067;0.1505;0.0562;0.193
2.194000;-0.1052;0.1348;0.0185;0.172
2.204000;-0.0858;0.1127;0.0037;0.142
2.215000;-0.0591;0.0890;-0.0026;0.107
2.225000;-0.0136;0.0388;-0.0257;0.048
2.234000;-0.0160;-0.0248;-0.0239;0.038
2.244000;-0.0498;-0.0680;-0.0095;0.085
2.254000;-0.0609;-0.1025;0.0450;0.127
2.265000;-0.0186;-0.1215;0.1326;0.181
2.276000;0.0651;-0.1146;0.1708;0.216
2.284000;0.1593;-0.0669;0.1168;0.209
2.294000;0.2149;-0.0339;-0.0244;0.219
2.304000;0.2571;-0.0393;-0.1129;0.284
2.314000;0.2409;-0.0514;-0.1844;0.308
2.327000;0.1486;-0.1013;-0.0570;0.189
2.334000;0.0374;-0.2127;0.1101;0.242
2.344000;-0.0101;-0.2893;0.3119;0.426
2.354000;-0.0370;-0.3169;0.4809;0.577
2.364000;-0.0139;-0.3093;0.5524;0.633
2.375000;0.0434;-0.2479;0.4534;0.519
2.384000;0.0908;-0.1389;0.2707;0.318
2.394000;0.1323;0.0200;0.1259;0.184
2.404000;0.2112;0.1576;-0.0218;0.264
2.415000;0.2928;0.2178;-0.2034;0.418
2.429000;0.2725;0.2071;-0.2205;0.407
2.435000;0.1567;0.1368;-0.0377;0.211
2.444000;0.0173;0.0058;0.1910;0.192
2.454000;-0.0949;-0.1161;0.3389;0.371
2.464000;-0.1538;-0.1911;0.3928;0.463
2.476000;-0.2084;-0.2236;0.2873;0.419
2.484000;-0.2132;-0.1617;0.0232;0.269
2.495000;-0.1544;-0.0230;-0.2346;0.282
2.505000;-0.0145;0.1393;-0.3965;0.420
2.516000;0.1548;0.2577;-0.4221;0.518
2.541000;0.3109;0.3529;-0.2696;0.542
2.545000;0.3721;0.3796;-0.1065;0.542
2.547000;0.3822;0.3202;0.1745;0.528
2.555000;0.3803;0.1968;0.5076;0.664
2.564000;0.3484;0.0578;0.6803;0.766
2.575000;0.2936;-0.0049;0.6160;0.682
2.584000;0.1957;-0.0280;0.3904;0.438
2.595000;0.1160;-0.0221;0.0885;0.148
2.605000;0.0565;-0.0004;-0.2338;0.241
2.616000;0.0416;0.0215;-0.1424;0.150
2.639000;0.0497;0.0295;-0.0577;0.082
2.640000;0.0523;0.0311;0.0137;0.062
2.648000;0.0613;0.0199;0.0681;0.094
2.655000;0.0518;-0.0170;0.0385;0.067
2.664000;0.0525;-0.0499;-0.0583;0.093
2.676000;0.0131;-0.0282;0.0159;0.035
2.684000;0.0194;0.0052;0.2022;0.203
2.694000;0.1059;0.0253;0.1348;0.173
2.704000;0.1623;0.1004;0.0392;0.195
2.714000;0.1881;0.2168;-0.0690;0.295
2.726000;0.2400;0.2644;-0.2447;0.433
2.734000;0.2501;0.2447;-0.3576;0.500
2.744000;0.2116;0.2019;-0.4130;0.506
2.754000;0.1244;0.1365;-0.3766;0.419
2.764000;-0.0086;0.0370;-0.1079;0.114
2.775000;-0.1347;-0.0259;0.2730;0.306
2.784000;-0.1878;-0.0721;0.5845;0.618
2.795000;-0.1873;-0.0777;0.7686;0.795
2.804000;-0.1484;-0.0380;0.8068;0.821
2.815000;-0.0614;0.0184;0.6906;0.694
2.829000;0.0003;0.0991;0.5058;0.515
2.835000;0.0628;0.1712;0.4237;0.461
2.844000;0.0874;0.2463;0.3821;0.463
2.854000;0.1124;0.2777;0.2890;0.416
2.865000;0.1093;0.2575;0.2423;0.370
2.875000;0.0468;0.2516;0.1995;0.325
2.885000;-0.0331;0.2267;0.1520;0.275
2.895000;-0.1186;0.1376;0.1482;0.234
2.906000;-0.2162;0.0484;0.1806;0.286
2.917000;-0.2761;0.0054;0.2220;0.354
2.941000;-0.2979;0.0007;0.2666;0.400
2.944000;-0.2176;0.0327;0.2454;0.330
2.945000;-0.0194;0.1338;0.2141;0.253
2.955000;0.0032;0.1513;0.1907;0.243
2.966000;-0.0491;0.0728;0.1969;0.216
2.975000;-0.1022;-0.0145;0.1846;0.211
2.985000;-0.1205;-0.0971;0.1783;0.236
2.995000;-0.1344;-0.1582;0.2876;0.355
3.005000;-0.1501;-0.1600;0.3628;0.424
3.015000;-0.1486;-0.0995;0.2928;0.343
3.032000;-0.1265;-0.0109;0.1954;0.233
3.034000;-0.0837;0.0510;0.1322;0.165
3.044000;-0.0451;0.0618;0.0552;0.094
3.054000;-0.0723;0.0187;-0.0233;0.078
3.064000;-0.1502;-0.0715;-0.1671;0.236
3.074000;-0.2354;-0.1380;-0.3036;0.408
3.084000;-0.2865;-0.1743;-0.3412;0.478
3.095000;-0.2958;-0.1833;-0.2891;0.452
3.104000;-0.2709;-0.1737;-0.1582;0.359
3.114000;-0.2589;-0.2025;0.0875;0.340
3.124000;-0.2110;-0.1953;0.2426;0.376
3.135000;-0.1693;-0.1539;0.2845;0.365
3.148000;-0.1342;-0.0977;0.2745;0.321
3.155000;-0.0864;-0.0599;0.1997;0.226
3.164000;-0.0543;-0.0521;0.1732;0.189
3.174000;-0.0678;-0.0578;0.1464;0.171
3.184000;-0.0660;-0.0723;0.1213;0.156
3.195000;-0.0615;-0.0699;0.1121;0.146
3.204000;-0.0671;-0.0843;0.0590;0.123
3.216000;-0.0966;-0.0886;0.1992;0.238
3.238000;-0.1479;-0.0935;0.1968;0.263
3.240000;-0.1899;-0.1149;0.3108;0.382
3.251000;-0.1843;-0.1038;0.2952;0.363
3.255000;-0.1921;-0.0647;0.2195;0.299
3.264000;-0.2057;-0.0381;0.1413;0.252
3.275000;-0.1851;-0.0201;-0.1731;0.254
3.284000;-0.0419;0.0906;-0.1397;0.172
3.295000;0.0411;0.1517;-0.0623;0.169
3.304000;0.1039;0.1695;0.0753;0.213
3.315000;0.1450;0.1881;0.2933;0.377
3.324000;0.2184;0.2334;0.3643;0.485
3.334000;0.2360;0.3033;0.3010;0.488
3.344000;0.2410;0.3579;0.2357;0.492
3.354000;0.2211;0.3360;0.0958;0.413
3.364000;0.1541;0.2623;-0.0013;0.304
3.377000;0.1059;0.1762;0.0338;0.208
3.385000;0.1114;0.1175;0.1516;0.222
3.397000;0.1216;0.0935;0.2414;0.286
3.404000;0.0836;0.0975;0.3427;0.366
3.414000;0.0410;0.1237;0.4540;0.472
3.424000;0.0322;0.1537;0.4799;0.505
3.434000;0.0647;0.1611;0.4064;0.442
3.448000;0.0432;0.1356;0.3139;0.345
3.455000;0.0072;0.1255;0.2315;0.263
3.464000;0.0383;0.1634;0.2165;0.274
3.475000;0.1042;0.2103;0.2241;0.325
3.484000;0.1869;0.2447;0.2730;0.412
3.495000;0.2357;0.2740;0.3129;0.478
3.504000;0.2426;0.2843;0.3005;0.480
3.515000;0.2309;0.2852;0.2366;0.437
3.525000;0.2123;0.2856;0.0204;0.357
3.534000;0.1314;0.2194;-0.1987;0.324
3.544000;0.0390;0.1072;-0.3981;0.414
3.554000;-0.0348;0.0330;-0.5133;0.516
3.564000;-0.1050;0.0133;-0.4041;0.418
3.575000;-0.1114;0.0212;-0.2320;0.258
3.584000;-0.0594;0.0764;-0.0721;0.121
3.596000;0.0324;0.1771;0.0758;0.195
3.605000;0.1301;0.2011;0.0334;0.242
3.615000;0.0949;0.1418;-0.0378;0.175
3.625000;0.0555;0.0480;-0.0904;0.116
3.635000;0.0025;-0.0298;-0.0802;0.086
3.661000;-0.0940;-0.1144;0.0851;0.171
3.662000;-0.1596;-0.1787;0.3374;0.414
3.664000;-0.1669;-0.2320;0.5357;0.607
3.674000;-0.1157;-0.2130;0.6553;0.699
3.684000;-0.0040;-0.1493;0.5361;0.557
3.695000;0.1191;-0.0469;0.2602;0.290
3.704000;0.1943;0.0457;-0.0683;0.211
3.714000;0.1760;0.0759;-0.3480;0.397
3.725000;0.1126;0.0659;-0.4371;0.456
3.735000;0.0407;0.0032;-0.4369;0.439
3.755000;0.0025;-0.0540;-0.3715;0.375
3.757000;0.0424;-0.0710;-0.3308;0.341
3.765000;0.0737;-0.0289;-0.1625;0.181
3.775000;0.1219;-0.0051;0.0696;0.140
3.784000;0.1706;0.0166;0.1624;0.236
3.795000;0.2109;0.0532;0.1700;0.276
3.804000;0.2409;0.0661;0.0175;0.250
3.815000;0.2173;0.0735;-0.1993;0.304
3.824000;0.1526;0.0687;-0.2712;0.319
3.835000;0.1122;0.0639;-0.2677;0.297
3.853000;0.1248;0.0500;-0.2344;0.270
3.855000;0.1357;0.0181;-0.1273;0.187
3.865000;0.1484;0.0091;-0.0722;0.165
3.874000;0.1600;0.0160;-0.0391;0.165
3.884000;0.2027;0.0122;0.0869;0.221
3.894000;0.2524;0.0301;0.1830;0.313
3.904000;0.3135;0.1316;0.0772;0.349
3.914000;0.3505;0.2192;-0.0734;0.420
3.924000;0.3669;0.2695;-0.2223;0.507
3.936000;0.3413;0.2683;-0.4378;0.617
3.949000;0.2662;0.2257;-0.3386;0.486
3.954000;0.2139;0.1338;-0.0857;0.266
3.964000;0.1713;0.1183;0.2718;0.342
3.974000;0.1227;0.1219;0.6693;0.691
3.984000;0.0871;0.1246;0.9573;0.969
3.997000;0.1365;0.1578;1.0357;1.056
4.004000;0.2051;0.2172;0.9668;1.012
4.015000;0.2624;0.2048;0.6161;0.700
4.026000;0.2416;0.1635;0.1860;0.346
4.036000;0.1188;0.1232;-0.1618;0.236
4.059000;-0.0518;0.1206;-0.3162;0.342
4.061000;-0.1879;0.1459;-0.2800;0.367
4.064000;-0.2171;0.2198;-0.0561;0.314
4.074000;-0.1587;0.2814;0.1916;0.376
4.084000;-0.0463;0.2787;0.4647;0.544
4.096000;0.0377;0.2061;0.6485;0.682
4.104000;0.0645;0.1428;0.6704;0.688
4.115000;-0.0018;0.0871;0.6187;0.625
4.125000;-0.1148;-0.0014;0.4878;0.501
4.136000;-0.2128;-0.0353;0.2353;0.319
4.161000;-0.2786;-0.0196;0.0293;0.281
4.163000;-0.3145;-0.0128;0.0450;0.318
4.165000;-0.3537;-0.0010;0.0941;0.366
4.175000;-0.4055;0.0412;0.1204;0.425
4.185000;-0.4424;0.0152;0.0640;0.447
4.199000;-0.3798;0.0131;-0.0198;0.381
4.205000;-0.2019;0.1073;-0.1446;0.271
4.215000;0.0436;0.2690;-0.2787;0.390
4.225000;0.2583;0.4973;-0.4226;0.702
4.235000;0.2994;0.6125;-0.4816;0.835
4.258000;0.1224;0.5515;-0.5015;0.755
4.260000;-0.1521;0.4167;-0.3819;0.585
4.270000;-0.3935;0.2157;-0.3236;0.553
4.274000;-0.7918;-0.0008;-0.1492;0.806
4.285000;-0.9882;0.0706;-0.0509;0.992
4.296000;-1.0049;0.2943;-0.0066;1.047
4.304000;-0.8496;0.6036;-0.0322;1.043
4.314000;-0.6714;0.9167;-0.0635;1.138
4.324000;-0.5231;1.2678;-0.1168;1.376
4.335000;-0.4000;1.5907;-0.4150;1.692
4.353000;-0.2956;1.8564;-0.9745;2.117
4.356000;-0.2085;2.0876;-1.6676;2.680
4.364000;-0.1666;2.1196;-2.2061;3.064
4.374000;-0.1177;2.0226;-2.4867;3.208
4.385000;-0.0516;1.7910;-2.5675;3.131
4.396000;-0.0684;1.4150;-2.0724;2.510
4.405000;-0.1531;1.0044;-1.3033;1.653
4.415000;-0.3280;0.6248;-0.6692;0.973
4.424000;-0.5540;0.3455;-0.2954;0.717
4.435000;-0.7077;0.1812;0.0096;0.731
4.452000;-0.7807;0.1357;0.1478;0.806
4.455000;-0.7821;0.0532;0.0438;0.785
4.465000;-0.6546;-0.0430;-0.1595;0.675
4.474000;-0.5687;-0.0766;-0.1735;0.599
4.484000;-1.3249;-0.4003;-0.1433;1.391
4.497000;-1.6793;-0.6521;-0.1006;1.804
4.504000;-1.6741;-0.8273;-0.0053;1.867
4.515000;-1.4362;-0.9546;0.0540;1.725
4.524000;-1.0456;-0.8518;0.1175;1.354
4.536000;-0.7004;-0.5726;0.2211;0.931
4.561000;-0.3658;-0.1697;0.2479;0.473
4.562000;0.0225;0.2553;0.2906;0.387
4.564000;0.3384;0.5711;0.2903;0.725
4.574000;0.4946;0.7500;0.2566;0.934
4.584000;0.4513;0.8119;0.1912;0.948
4.599000;0.2427;0.8261;0.0544;0.863
4.604000;-0.0524;0.9182;-0.0548;0.921
4.614000;-0.0696;0.9200;0.0274;0.923
4.624000;-0.0488;0.8939;0.2170;0.921
4.635000;-0.0460;0.8794;0.4495;0.989
4.656000;-0.0824;0.8256;0.6832;1.075
4.658000;-0.1780;0.8253;0.8512;1.199
4.668000;-0.2493;0.8635;0.9342;1.296
4.674000;-0.3189;0.8930;1.0293;1.399
4.684000;-0.3830;0.9279;1.1329;1.514
4.696000;-0.3540;0.9991;1.2764;1.659
4.704000;-0.2768;0.9588;1.2958;1.636
4.714000;-0.1172;0.8141;1.2260;1.476
4.724000;0.0044;0.6115;1.2301;1.374
4.735000;0.0198;0.3020;1.5152;1.545
4.756000;0.0848;0.0070;2.0131;2.015
4.758000;0.2088;-0.2761;2.5920;2.615
4.766000;0.2758;-0.5093;3.0751;3.129
4.774000;0.2812;-0.7195;3.2398;3.331
4.784000;0.3443;-0.8892;3.1196;3.262
4.797000;0.4760;-1.0509;2.9770;3.193
4.804000;0.6114;-1.1748;2.7506;3.053
4.814000;0.8017;-1.0881;2.3601;2.720
4.824000;0.9662;-0.8737;1.9902;2.379
4.836000;1.1187;-0.7101;1.6161;2.090
4.863000;1.2750;-0.6643;1.1826;1.862
4.865000;1.3158;-0.6464;0.8474;1.693
4.866000;1.1479;-0.6993;0.5707;1.460
4.874000;0.8651;-0.6949;0.1955;1.127
4.885000;0.6125;-0.6191;-0.1610;0.886
4.898000;0.5055;-0.5493;-0.5299;0.915
4.904000;0.5771;-0.3816;-0.7040;0.987
4.914000;0.7491;-0.1374;-0.9769;1.239
4.924000;0.8459;0.1508;-1.3484;1.599
4.934000;0.8533;0.3802;-1.7481;1.982
4.957000;0.6952;0.5327;-1.7106;1.922
4.959000;0.4651;0.4416;-1.5222;1.652
4.969000;0.2443;0.3398;-1.3575;1.421
4.975000;0.1036;0.3028;-1.1796;1.222
4.985000;0.0973;0.3433;-1.0274;1.088
4.998000;0.1524;0.4286;-0.9517;1.055
5.004000;0.2297;0.5593;-0.8998;1.084
5.015000;0.2719;0.7229;-0.8949;1.182
5.024000;0.3002;0.8759;-0.9483;1.325
5.034000;0.3187;0.9672;-0.9485;1.392
5.056000;0.2782;0.9740;-0.8848;1.345
5.058000;0.2026;0.9777;-0.8740;1.327
5.068000;0.0323;0.8656;-0.8831;1.237
5.074000;-0.1510;0.7028;-0.7302;1.025
5.086000;-0.2187;0.5802;-0.5775;0.847
5.095000;-0.2022;0.4677;-0.5520;0.751
5.104000;-0.2061;0.3711;-0.5951;0.731
5.117000;-0.2793;0.3300;-0.5950;0.735
5.125000;-0.3249;0.2958;-0.5992;0.743
5.139000;-0.3207;0.2383;-0.6451;0.759
5.144000;-0.3096;0.1750;-0.6894;0.776
5.154000;-0.3128;0.1780;-0.6518;0.745
5.164000;-0.3231;0.2342;-0.4895;0.632
5.174000;-0.3328;0.3225;-0.3736;0.595
5.184000;-0.3193;0.4514;-0.2949;0.627
5.195000;-0.2459;0.6458;-0.2124;0.723
5.204000;-0.1409;0.8548;-0.1477;0.879
5.217000;0.0382;0.9903;-0.0565;0.993
5.225000;0.2210;1.0789;0.0770;1.104
5.238000;0.3025;1.1050;0.1958;1.162
5.247000;0.2835;1.0226;0.4822;1.166
5.254000;0.2284;0.8444;0.4967;1.006
5.264000;0.0929;0.7384;0.5688;0.937
5.275000;-0.0638;0.9009;0.5413;1.053
5.284000;0.0730;1.0587;0.5363;1.189
5.294000;0.2585;1.1734;0.6415;1.362
5.305000;0.4571;1.1667;0.6531;1.413
5.319000;0.6551;1.0718;0.6512;1.415
5.326000;0.6709;0.9657;0.7836;1.413
5.347000;0.5296;0.8723;0.7675;1.277
5.349000;0.3614;0.6959;0.7541;1.088
5.354000;0.1922;0.4360;1.0685;1.170
5.365000;0.0188;0.1295;1.5076;1.513
5.374000;-0.2087;-0.2552;1.9338;1.962
5.384000;-0.4964;-0.6829;2.2524;2.405
5.395000;-0.8093;-1.1274;2.3712;2.747
5.404000;-1.1041;-1.4543;2.3512;2.977
5.420000;-1.2498;-1.6087;2.2319;3.022
5.425000;-1.2984;-1.6290;2.0043;2.891
5.442000;-1.3801;-1.6022;1.9451;2.873
5.448000;-1.4718;-1.4938;1.8402;2.790
5.454000;-1.4676;-1.4107;1.3722;2.455
5.464000;-1.4033;-1.3127;0.6739;2.036
5.474000;-1.3505;-1.1594;0.1012;1.783
5.484000;-1.2277;-0.9833;-0.2870;1.599
5.494000;-0.9777;-0.7844;-0.6525;1.413
5.504000;-0.6423;-0.5578;-0.9514;1.276
5.517000;-0.3392;-0.3528;-1.0960;1.200
5.524000;-0.0974;-0.2197;-1.2311;1.254
5.540000;0.0264;-0.1659;-1.2799;1.291
5.545000;0.0779;-0.2185;-1.3064;1.327
5.555000;0.1465;-0.3547;-1.5162;1.564
5.564000;0.2122;-0.5750;-1.4553;1.579
5.574000;0.2131;-0.7486;-1.2989;1.514
5.585000;0.2483;-0.8206;-1.0260;1.337
5.594000;0.1097;-0.8577;-0.7858;1.168
5.605000;-0.2821;-1.0302;-0.5937;1.222
5.622000;-0.4597;-1.0977;-0.6910;1.376
5.625000;-0.5736;-1.0784;-0.8333;1.479
5.650000;-0.6209;-0.9909;-0.9547;1.510
5.652000;-0.6393;-0.8768;-0.8326;1.368
5.654000;-0.7061;-0.7866;-0.5431;1.188
5.665000;-0.8185;-0.7542;-0.3176;1.157
5.674000;-0.9337;-0.7975;-0.1903;1.243
5.684000;-1.0729;-0.8804;-0.0269;1.388
5.699000;-1.1573;-0.9325;0.0801;1.488
5.704000;-1.2298;-0.8721;0.0444;1.508
5.715000;-1.1949;-0.7235;-0.0418;1.397
5.725000;-1.0343;-0.4515;-0.1176;1.135
5.739000;-0.8023;-0.1440;-0.2195;0.844
5.747000;-0.5754;0.1965;-0.4037;0.730
5.774000;-0.4436;0.5129;-0.6211;0.920
5.775000;-0.3735;0.7654;-0.7570;1.139
5.776000;-0.3300;0.8916;-0.8030;1.244
5.785000;-0.3774;0.8805;-0.7211;1.199
5.794000;-0.4821;0.8490;-0.5581;1.125
5.804000;-0.6447;0.7930;-0.3807;1.091
5.817000;-0.7119;0.7710;-0.2702;1.084
5.824000;-0.6433;0.8546;-0.2268;1.093
5.845000;-0.5631;1.0339;-0.2414;1.202
5.847000;-0.4721;1.2938;-0.4523;1.450
5.854000;-0.3965;1.5326;-0.8193;1.782
5.864000;-0.2860;1.6678;-1.2141;2.083
5.875000;-0.2721;1.6148;-1.3669;2.133
5.885000;-0.4078;1.3446;-1.2110;1.855
5.895000;-0.6588;0.9683;-0.7182;1.374
5.904000;-0.7384;0.8915;-0.3369;1.206
5.918000;-0.6664;0.7235;0.1660;0.998
5.925000;-0.5245;0.6507;0.9865;1.293
5.941000;-0.3628;0.3361;2.2581;2.312
5.944000;-0.4155;0.4432;2.6897;2.757
5.954000;-0.3975;0.6787;2.6794;2.792
5.965000;-0.1084;0.9335;2.3963;2.574
5.974000;0.3063;0.9581;2.2205;2.438
5.984000;0.6221;0.9402;2.2738;2.538
5.994000;0.6417;0.9232;2.5997;2.832
6.004000;0.6943;0.9344;2.3534;2.626
6.017000;0.8105;0.8358;2.1278;2.425
6.025000;0.9782;0.5476;2.1819;2.453
6.046000;0.8604;0.0293;2.1568;2.322
6.049000;0.5264;-0.4883;2.1179;2.236
6.054000;0.1381;-1.0077;1.8295;2.093
6.065000;-0.1543;-1.3961;1.7290;2.228
6.074000;-0.2293;-1.5968;1.8683;2.468
6.084000;-0.1632;-1.6501;2.2507;2.796
6.094000;0.0511;-1.5756;2.6751;3.105
6.104000;0.4683;-1.4149;2.8203;3.190
6.118000;0.9639;-1.1670;2.4760;2.902
6.124000;1.3505;-0.8177;1.6985;2.319
6.141000;1.5238;-0.4793;0.6887;1.740
6.145000;1.5108;-0.1830;-0.2832;1.548
6.154000;1.3665;-0.0060;-1.0387;1.716
6.166000;1.1557;-0.0941;-1.6313;2.001
6.175000;0.8973;-0.3426;-2.0733;2.285
6.186000;0.5577;-0.6066;-2.2342;2.381
6.194000;0.2281;-0.7751;-1.8785;2.045
6.204000;0.0649;-0.8343;-1.3898;1.622
6.219000;-0.0562;-0.8499;-1.0443;1.348
6.224000;-0.1357;-0.7386;-0.8013;1.098
6.243000;-0.1838;-0.5219;-0.6971;0.890
6.245000;-0.2087;-0.3674;-0.4990;0.654
6.254000;-0.2766;-0.2256;-0.2925;0.461
6.265000;-0.3518;-0.0540;-0.5960;0.694
6.274000;-0.4347;-0.0260;-1.0921;1.176
6.284000;-0.4945;0.0651;-1.5477;1.626
6.294000;-0.4252;0.1811;-1.9110;1.966
6.305000;-0.2541;0.3436;-2.0334;2.078
6.319000;-0.0483;0.4190;-1.7938;1.843
6.325000;0.1544;0.5404;-1.5245;1.625
6.344000;0.3074;0.6535;-1.1411;1.350
6.345000;0.4214;0.6681;-0.6872;1.047
6.354000;0.4213;0.6289;-0.3772;0.846
6.365000;0.2596;0.5395;-0.4247;0.734
6.374000;-0.0209;0.4060;-0.6012;0.726
6.384000;-0.2331;0.2234;-0.7820;0.846
6.394000;-0.3121;0.0940;-0.8555;0.915
6.404000;-0.3403;0.0533;-0.8671;0.933
6.424000;-0.3285;0.0577;-0.8181;0.884
6.426000;-0.3096;0.1094;-0.7279;0.798
6.455000;-0.3107;0.1107;-0.6421;0.722
6.456000;-0.3374;0.0792;-0.5933;0.687
6.457000;-0.3318;0.0395;-0.6116;0.697
6.465000;-0.2446;0.1133;-0.7275;0.776
6.474000;-0.0491;0.3267;-0.7866;0.853
6.485000;0.1750;0.5937;-0.7062;0.939
6.494000;0.4086;0.8364;-0.6352;1.127
6.505000;0.5712;0.9998;-0.6636;1.329
6.521000;0.6791;1.0989;-0.5860;1.418
6.526000;0.7142;1.1134;-0.4122;1.386
6.558000;0.7033;1.0041;-0.1968;1.242
6.559000;0.7031;0.8628;0.1559;1.124
6.560000;0.6790;0.7236;0.4306;1.082
6.567000;0.5658;0.6098;0.7556;1.124
6.574000;0.3864;0.5123;1.2088;1.369
6.584000;0.1145;0.4473;1.7276;1.788
6.594000;-0.4368;0.6732;1.4895;1.692
6.604000;-0.2471;0.8270;0.7244;1.127
6.620000;0.1153;1.0104;0.4518;1.113
6.624000;0.3905;1.1029;0.6042;1.317
6.650000;0.4577;1.1352;0.7141;1.417
6.651000;0.5449;1.1150;0.6570;1.404
6.654000;0.6185;0.9586;1.0010;1.518
6.666000;0.5621;0.7005;1.6549;1.883
6.675000;0.2726;0.2777;2.1784;2.213
6.684000;-0.0166;-0.2957;2.5187;2.536
6.694000;-0.2279;-0.8858;2.8547;2.998
6.704000;-0.2975;-1.3491;3.0944;3.389
6.721000;-0.4059;-1.5988;3.1218;3.531
6.724000;-0.6924;-1.6148;3.2528;3.697
6.750000;-0.9764;-1.4951;3.2372;3.697
6.753000;-1.0898;-1.3710;2.6568;3.182
6.756000;-1.0869;-1.2197;1.5975;2.285
6.766000;-1.0532;-1.0201;0.5704;1.573
6.774000;-1.0296;-0.8649;-0.3139;1.381
6.784000;-0.9811;-0.7915;-0.7968;1.491
6.794000;-0.8890;-0.7609;-0.9155;1.486
6.804000;-0.6671;-0.7371;-0.7866;1.268
6.821000;-0.3613;-0.6637;-0.3543;0.835
6.826000;-0.0518;-0.5872;0.1240;0.602
6.850000;0.2024;-0.6073;0.4060;0.758
6.852000;0.3080;-0.7336;0.5301;0.956
6.854000;0.2715;-0.8606;0.4826;1.023
6.866000;0.0679;-0.9999;0.2803;1.041
6.874000;-0.2119;-1.1267;0.0874;1.150
6.884000;-0.4685;-1.2732;-0.2992;1.389
6.894000;-0.7189;-1.3698;-0.6017;1.660
6.904000;-0.9003;-1.3601;-0.6803;1.767
6.917000;-0.8535;-1.1020;-0.9389;1.681
6.928000;-0.3631;-0.3175;-1.4855;1.562
6.957000;-0.1480;-0.0424;-1.6297;1.637
6.959000;-0.0236;0.1571;-1.7779;1.785
6.960000;0.0337;0.2944;-2.0190;2.041
6.967000;-0.0238;0.3485;-2.1850;2.213
6.974000;-0.1587;0.3278;-2.2246;2.254
6.984000;-0.2790;0.2381;-2.1211;2.153
6.994000;-0.2974;0.1364;-1.9202;1.948
7.004000;-0.2071;0.0865;-1.6244;1.640
7.021000;-0.0975;0.1410;-1.2525;1.264
7.025000;0.0610;0.3025;-1.0316;1.077
7.052000;0.1775;0.4603;-0.9287;1.052
7.053000;0.1453;0.5156;-0.8946;1.043
7.054000;0.0447;0.5955;-1.0179;1.180
7.064000;-0.1752;0.6449;-1.0273;1.225
7.074000;-0.4273;0.6706;-0.7845;1.117
7.084000;-0.6624;0.6393;-0.4731;1.035
7.095000;-0.8321;0.5741;-0.2569;1.043
7.104000;-0.9951;0.5774;-0.1576;1.161
7.120000;-1.0433;0.6681;-0.1651;1.250
7.124000;-0.9817;0.8350;-0.2928;1.322
7.151000;-0.7998;1.0825;-0.3267;1.385
7.154000;-0.4977;1.3230;-0.2683;1.439
7.155000;-0.2185;1.4845;-0.1932;1.513
7.166000;-0.0708;1.5628;0.0692;1.566
7.175000;-0.0554;1.5066;0.3690;1.552
7.184000;-0.0772;1.3154;0.6399;1.465
7.194000;-0.0603;1.1442;0.8028;1.399
7.204000;-0.0636;1.0356;0.8324;1.330
7.223000;-0.0909;0.9411;0.9690;1.354
7.227000;-0.1595;0.7379;1.2640;1.472
7.256000;-0.2163;0.5252;1.6816;1.775
7.257000;-0.3610;0.2977;2.2644;2.312
7.259000;-0.5262;0.2958;2.8787;2.941
7.266000;-0.3798;0.8221;2.4072;2.572
7.274000;0.0630;1.1205;1.7221;2.056
7.285000;0.4985;1.4087;1.5324;2.140
7.294000;0.8837;1.5494;1.7209;2.479
7.304000;1.1759;1.4451;1.6726;2.504
7.315000;1.3045;1.1264;1.4479;2.251
7.325000;1.2847;0.7554;1.3779;2.030
7.352000;1.0755;0.3105;1.5255;1.892
7.353000;0.8537;-0.0935;1.5968;1.813
7.355000;0.7666;-0.3961;1.6001;1.818
7.365000;0.7389;-0.6126;1.9174;2.144
7.374000;0.6293;-0.8726;2.4479;2.674
7.384000;0.3779;-1.1205;3.0613;3.282
7.395000;0.0816;-1.3675;3.6259;3.876
7.405000;-0.0706;-1.5108;3.7314;4.026
7.415000;-0.0828;-1.5701;3.3678;3.717
7.425000;-0.0686;-1.5642;2.5820;3.020
7.457000;-0.0810;-1.4422;1.4477;2.045
7.458000;-0.1042;-1.2176;0.1488;1.231
7.459000;-0.1204;-1.0163;-0.9391;1.389
7.464000;-0.1588;-0.9214;-1.5981;1.851
7.474000;-0.2204;-0.9436;-1.9769;2.202
7.484000;-0.2798;-1.0258;-1.9348;2.208
7.494000;-0.2514;-1.0087;-1.4379;1.774
7.504000;-0.1046;-0.9231;-0.8867;1.284
7.515000;0.0660;-0.7234;-0.3687;0.815
7.525000;0.2023;-0.5058;0.0420;0.546
7.555000;0.3078;-0.3465;0.2690;0.536
7.556000;0.3633;-0.2980;0.2728;0.543
7.557000;0.3696;-0.2470;0.0323;0.446
7.564000;0.2933;-0.2438;-0.3362;0.508
7.574000;0.1816;-0.2473;-0.7892;0.847
7.584000;0.0388;-0.3095;-1.1291;1.171
7.594000;-0.1421;-0.3520;-0.9740;1.045
7.604000;-0.0604;-0.2259;-0.8344;0.867
7.614000;0.1090;0.0134;-0.6930;0.702
7.625000;0.2753;0.2653;-0.6890;0.788
7.651000;0.4043;0.4235;-0.8792;1.056
7.653000;0.4889;0.4412;-1.1242;1.303
7.654000;0.5831;0.3875;-1.1881;1.379
7.664000;0.5522;0.2733;-1.2244;1.371
7.675000;0.3917;0.0860;-1.4291;1.484
7.684000;0.1659;-0.0823;-1.7094;1.719
7.694000;-0.0388;-0.1794;-1.8841;1.893
7.704000;-0.1960;-0.2240;-1.8789;1.902
7.715000;-0.2247;-0.1217;-1.6701;1.690
7.725000;-0.0952;0.0491;-1.3224;1.327
7.752000;0.0793;0.2446;-1.1303;1.159
7.754000;0.1859;0.3816;-1.0695;1.151
7.754000;0.1731;0.4506;-1.0411;1.148
7.764000;0.1602;0.4613;-1.0411;1.150
7.775000;0.2399;0.4870;-1.1007;1.227
7.785000;0.3141;0.5882;-1.0502;1.244
7.794000;0.4069;0.7066;-0.7816;1.129
7.804000;0.4878;0.8064;-0.6010;1.118
7.814000;0.5769;0.8997;-0.5539;1.204
7.825000;0.5876;0.9418;-0.5353;1.232
7.853000;0.5460;0.9536;-0.3383;1.150
7.854000;0.4505;0.8600;0.2576;1.004
7.855000;0.4491;0.6717;0.9964;1.283
7.864000;0.5240;0.4522;1.6431;1.783
7.874000;0.5127;0.2613;2.1684;2.243
7.884000;0.2868;0.1887;2.5790;2.602
7.894000;-0.1993;0.2845;2.7910;2.813
7.904000;-0.5949;0.3867;2.3070;2.414
7.915000;-0.6024;0.3751;1.5156;1.674
7.925000;-0.7234;0.6436;1.1939;1.537
7.957000;-1.1142;0.8797;0.6784;1.573
7.959000;-1.2159;1.0915;-0.2017;1.646
7.961000;-0.7246;1.1503;-0.6647;1.513
7.965000;0.2798;1.0440;-0.7471;1.314
7.975000;1.2357;0.8818;-0.6385;1.647
7.985000;1.7765;0.7196;-0.1078;1.920
7.994000;1.8533;0.3535;0.8664;2.076
8.004000;1.5537;-0.1865;1.8073;2.391
8.014000;0.9852;-0.7132;2.7427;3.000
8.024000;0.3134;-1.1941;3.3327;3.554
8.054000;-0.4049;-1.6253;3.1054;3.528
8.057000;-0.9912;-1.9129;2.1700;3.058
8.059000;-1.2672;-1.9478;0.9072;2.495
8.065000;-1.2195;-1.7061;-0.2727;2.115
8.074000;-1.0186;-1.4070;-0.9833;1.996
8.085000;-0.6875;-1.1164;-1.1113;1.719
8.094000;-0.2426;-0.8914;-0.8893;1.282
8.104000;0.1915;-0.7458;-0.5954;0.973
8.114000;0.5155;-0.6750;-0.5377;1.005
8.125000;0.6531;-0.6559;-0.5830;1.094
8.149000;0.6296;-0.7493;-0.5684;1.132
8.151000;0.5686;-0.9165;-0.5680;1.219
8.155000;0.4264;-1.0154;-0.4736;1.199
8.164000;0.0628;-1.0988;-0.2257;1.124
8.174000;-0.3874;-1.1816;-0.0112;1.244
8.185000;-0.7145;-1.2897;0.0337;1.475
8.194000;-0.8788;-1.3444;-0.2805;1.630
8.204000;-0.9180;-1.2185;-0.8214;1.733
8.214000;-0.8767;-0.9328;-1.5089;1.979
8.225000;-0.6567;-0.5212;-2.1311;2.290
8.250000;-0.3025;-0.1168;-2.5592;2.580
8.252000;0.0311;0.2375;-2.6982;2.709
8.254000;0.1923;0.5122;-2.1328;2.202
8.264000;-0.0159;0.3541;-1.5830;1.622
8.275000;-0.2622;0.1854;-1.1566;1.200
8.285000;-0.4878;0.0949;-0.9415;1.065
8.294000;-0.6209;0.1089;-0.9252;1.120
8.304000;-0.6677;0.2311;-0.8922;1.138
8.314000;-0.5788;0.4198;-0.7415;1.030
8.325000;-0.4156;0.6305;-0.4381;0.873
8.356000;-0.2927;0.7625;0.0246;0.817
8.357000;-0.2087;0.8620;0.5629;1.050
8.359000;-0.2056;0.9634;0.9378;1.360
8.364000;-0.2729;1.0600;0.9377;1.441
8.374000;-0.4290;1.1167;0.6882;1.380
8.384000;-0.6347;1.1537;0.3423;1.361
8.394000;-0.8300;1.1741;0.0070;1.438
8.405000;-0.9406;1.1910;-0.2235;1.534
8.414000;-0.9744;1.2441;-0.1898;1.592
8.425000;-0.9223;1.3169;-0.0544;1.609
8.448000;-0.7897;1.3750;0.1265;1.591
8.450000;-0.5827;1.4261;0.4263;1.599
8.459000;-0.3069;1.4676;0.6564;1.637
8.465000;-0.0575;1.4711;0.8602;1.705
8.474000;0.0682;1.4319;1.0960;1.805
8.485000;0.0974;1.3505;1.3476;1.910
8.494000;-0.0480;1.2970;1.6381;2.090
8.504000;-0.0680;1.3895;1.7787;2.258
8.514000;0.1105;1.3658;1.4063;1.963
8.525000;0.3218;1.1608;1.0297;1.585
8.554000;0.3164;0.7728;0.9961;1.300
8.555000;0.0280;0.4253;1.0275;1.112
8.556000;-0.3323;0.2132;0.8940;0.977
8.564000;-0.3034;0.0958;0.7790;0.841
8.574000;0.2357;-0.0099;1.1228;1.147
8.586000;1.4219;-0.3815;2.4421;2.852
8.594000;1.4846;-0.7571;2.7836;3.244
8.604000;1.3083;-1.2251;3.1708;3.642
8.614000;0.9689;-1.7508;3.5681;4.091
8.624000;0.6131;-2.1770;3.7915;4.415
8.655000;0.2675;-2.3899;3.8830;4.567
8.657000;0.0707;-2.3375;3.7838;4.448
8.659000;0.1537;-2.0265;3.3386;3.909
8.664000;0.4579;-1.6251;2.6730;3.162
8.674000;0.7324;-1.2546;1.6250;2.180
8.685000;0.8395;-0.9341;0.6857;1.431
8.694000;0.8074;-0.6783;-0.1805;1.070
8.705000;0.7154;-0.5203;-0.9224;1.278
8.714000;0.5398;-0.4635;-1.5994;1.751
8.725000;0.2936;-0.5324;-2.2089;2.291
8.751000;0.0286;-0.6532;-2.4366;2.523
8.753000;-0.1361;-0.7313;-2.3498;2.465
8.754000;-0.1742;-0.7267;-2.0117;2.146
8.764000;-0.1442;-0.6195;-1.5313;1.658
8.774000;-0.1008;-0.4588;-1.1094;1.205
8.785000;-0.1117;-0.3740;-0.7152;0.815
8.794000;-0.1376;-0.3652;-0.5362;0.663
8.804000;-0.2073;-0.3432;-0.5119;0.650
8.814000;-0.2517;-0.3093;-0.6697;0.779
8.825000;-0.2480;-0.2412;-0.9652;1.025
8.853000;-0.1769;-0.1149;-1.2469;1.265
8.856000;-0.0439;0.0673;-1.4148;1.417
8.856000;0.1312;0.2980;-1.4624;1.498
8.864000;0.2950;0.5257;-1.3892;1.514
8.874000;0.4834;0.7462;-1.2897;1.567
8.885000;0.6024;0.8547;-1.1640;1.565
8.894000;0.6519;0.8868;-0.9765;1.471
8.904000;0.6654;0.8343;-0.8083;1.339
8.914000;0.5997;0.7414;-0.9164;1.323
8.924000;0.1022;0.5700;-1.0032;1.158
8.960000;-0.0582;0.5287;-1.2261;1.336
8.962000;-0.0913;0.5324;-1.3406;1.445
8.963000;0.0128;0.5566;-1.3504;1.461
8.965000;0.1488;0.5427;-1.3205;1.435
8.974000;0.2485;0.5329;-1.1281;1.272
8.987000;0.3130;0.4744;-0.7966;0.979
9.004000;0.3904;0.4322;-0.0278;0.583
9.014000;0.3116;0.4460;0.3560;0.650
9.025000;0.2108;0.5285;0.5322;0.779
9.055000;0.1399;0.6669;0.4603;0.822
9.057000;0.1381;0.8275;0.2782;0.884
9.058000;0.1730;0.9233;0.2836;0.981
9.064000;0.2044;0.9387;0.4251;1.051
9.074000;0.2131;0.8740;0.7339;1.161
9.087000;0.2281;0.7175;1.1825;1.402
9.094000;0.2083;0.5489;1.6732;1.773
9.104000;-0.0289;0.4626;2.1054;2.156
9.115000;-0.2532;0.5521;2.2315;2.313
9.124000;-0.1117;0.6595;1.8630;1.979
9.159000;0.3811;0.6997;1.5668;1.758
9.161000;0.6542;0.8120;1.7838;2.066
9.162000;0.4163;1.0688;1.8131;2.145
9.164000;0.0370;1.1950;1.1990;1.693
9.175000;-0.1375;1.0897;0.7499;1.330
9.186000;0.0092;0.8931;0.4762;1.012
9.194000;0.1243;0.5450;0.2856;0.628
9.204000;0.0388;0.1476;0.4472;0.473
9.214000;-0.1200;-0.3384;1.0808;1.139
9.224000;-0.1610;-0.7754;2.0654;2.212
9.240000;-0.2190;-1.1155;3.2458;3.439
9.244000;-0.3808;-1.3985;4.2611;4.501
9.277000;-0.9364;-1.6860;3.8189;4.278
9.279000;-1.2335;-1.7203;2.2511;3.090
9.281000;-1.4457;-1.6617;0.4147;2.241
9.287000;-1.6166;-1.4562;-1.1900;2.480
9.294000;-1.6889;-1.3399;-2.0157;2.951
9.304000;-1.6435;-1.3745;-2.1174;3.012
9.314000;-1.3864;-1.4580;-1.8581;2.739
9.324000;-1.0302;-1.4496;-1.3755;2.248
9.335000;-0.6336;-1.2940;-0.8972;1.697
9.345000;-0.2660;-1.0917;-0.5425;1.248
9.378000;0.0388;-0.9500;-0.2768;0.990
9.380000;0.2539;-0.9177;-0.1775;0.969
9.381000;0.3400;-0.9896;-0.2567;1.077
9.387000;0.1894;-1.1326;-0.4398;1.230
9.394000;-0.0923;-1.2905;-0.6680;1.456
9.407000;-0.3803;-1.3866;-0.8989;1.696
9.414000;-0.5651;-1.4063;-1.0908;1.867
9.424000;-0.6363;-1.3298;-1.1405;1.864
9.435000;-0.6208;-1.2385;-1.1415;1.795
9.445000;-0.5473;-1.1188;-1.0801;1.649
9.476000;-0.4097;-0.8761;-1.1508;1.503
9.478000;-0.2701;-0.5762;-1.2524;1.405
9.479000;-0.1609;-0.2927;-1.4783;1.516
9.484000;-0.0802;-0.1132;-1.7317;1.737
9.494000;0.0099;0.0347;-1.9275;1.928
9.504000;0.0052;0.1669;-2.0320;2.039
9.514000;-0.0260;0.2516;-2.0732;2.089
9.524000;-0.1226;0.2577;-1.8345;1.857
9.540000;-0.2111;0.2426;-1.3956;1.432
9.544000;-0.2370;0.2221;-0.9916;1.043
9.573000;-0.2174;0.2395;-0.8265;0.888
9.575000;-0.1731;0.3553;-0.7827;0.877
9.576000;-0.1429;0.5032;-0.8517;0.999
9.584000;-0.1620;0.6800;-0.8864;1.129
9.594000;-0.2106;0.7223;-0.6248;0.978
9.604000;-0.3079;0.7535;-0.1788;0.833
9.614000;-0.4058;0.7531;0.2343;0.887
9.624000;-0.4677;0.8149;0.4667;1.049
9.634000;-0.4807;0.8678;0.5588;1.139
9.644000;-0.4462;0.9369;0.6785;1.240
9.670000;-0.3347;0.9651;0.7249;1.253
9.672000;-0.1373;1.0379;0.9180;1.392
9.674000;0.0293;0.9887;1.0245;1.424
9.684000;0.1575;0.8943;1.3101;1.594
9.694000;0.1692;0.9125;2.0547;2.255
9.704000;0.1275;0.9510;2.8969;3.052
9.714000;0.1978;0.8395;3.3222;3.432
9.724000;0.4413;0.6672;3.3719;3.466
9.735000;0.6402;0.4862;3.2226;3.321
9.745000;0.5735;0.4311;3.0520;3.135
9.781000;0.4981;0.5299;2.6450;2.743
9.782000;0.7682;0.6798;2.0747;2.314
9.784000;1.2349;0.6502;1.6631;2.171
9.785000;1.6191;0.3938;1.4854;2.232
9.794000;1.6516;-0.2670;1.7831;2.445
9.804000;1.2900;-1.0338;2.6059;3.086
9.814000;0.6691;-1.7346;3.4451;3.915
9.825000;-0.0018;-2.2938;4.3962;4.959
9.835000;-0.4536;-2.6765;5.0747;5.755
9.845000;-0.4904;-2.8089;5.2002;5.931
9.879000;-0.2091;-2.6438;4.4818;5.208
9.881000;0.3278;-2.0367;3.0330;3.668
9.883000;0.6520;-1.4090;1.2379;1.986
9.885000;0.7607;-0.9327;-0.3199;1.245
9.895000;0.7183;-0.6534;-1.5240;1.807
9.904000;0.5965;-0.4897;-2.4988;2.615
9.914000;0.2145;-0.4528;-2.8962;2.939
9.925000;0.2160;-0.4374;-2.4418;2.490
9.934000;0.3540;-0.3812;-1.8521;1.924
9.945000;0.4333;-0.3214;-1.3512;1.455
9.977000;0.3355;-0.2652;-0.9175;1.012
9.979000;0.1320;-0.2579;-0.6756;0.735
9.980000;-0.0832;-0.3182;-0.6744;0.750
9.984000;-0.3118;-0.3690;-0.8490;0.977
9.994000;-0.4871;-0.4246;-1.1347;1.306
10.005000;-0.6431;-0.3985;-1.5902;1.761
10.014000;-0.7388;-0.3147;-1.8711;2.036
10.024000;-0.7081;-0.2185;-1.9618;2.097
10.035000;-0.4328;-0.0602;-1.9664;2.014
10.046000;-0.0054;0.1974;-1.9411;1.951
10.079000;0.3636;0.4743;-1.8392;1.934
10.080000;0.6095;0.7446;-1.6405;1.902
10.081000;0.8376;0.9479;-1.3975;1.885
10.085000;1.0902;1.0949;-1.2366;1.979
10.094000;1.1545;1.1630;-1.1408;1.997
10.104000;0.9627;1.0859;-1.1589;1.857
10.114000;0.6134;0.9278;-1.2997;1.711
10.124000;0.2297;0.6615;-1.4646;1.623
10.135000;-0.0490;0.3979;-1.5155;1.568
10.145000;-0.2434;0.1817;-1.3332;1.367
10.181000;-0.3657;0.0501;-1.0219;1.086
10.182000;-0.3698;0.0447;-0.6757;0.772
10.183000;-0.3090;0.1313;-0.3198;0.464
10.187000;-0.1669;0.2827;0.0427;0.331
10.195000;0.0508;0.4987;0.1488;0.523
10.204000;0.2778;0.7924;0.1817;0.859
10.214000;0.4730;1.0128;0.1353;1.126
10.224000;0.6647;1.1996;0.0017;1.371
10.234000;0.7815;1.2954;0.1166;1.517
10.245000;0.8392;1.1334;0.6501;1.553
10.282000;0.8687;1.0361;0.9780;1.669
10.284000;1.0135;0.9333;1.4125;1.973
10.286000;1.2524;0.7851;1.8650;2.380
10.287000;1.2246;0.6409;2.5232;2.877
10.294000;0.6777;0.5539;2.9939;3.119
10.306000;0.0507;0.4877;2.6399;2.685
10.314000;0.0345;0.5230;1.8887;1.960
10.325000;0.4095;0.7110;1.6057;1.803
10.334000;0.3955;1.0109;1.6799;2.000
10.345000;-0.0365;1.3176;1.4315;1.946
10.379000;-0.3119;1.5531;0.8048;1.777
10.380000;-0.2459;1.5297;0.5403;1.641
10.381000;0.0555;1.2567;0.4162;1.325
10.385000;0.1695;0.7593;0.6002;0.983
10.394000;0.2674;0.2170;1.1835;1.233
10.405000;0.5060;-0.2936;1.8032;1.896
10.414000;0.5198;-0.7799;2.5607;2.727
10.425000;0.1601;-1.1438;3.2313;3.432
10.435000;-0.4057;-1.5656;3.4266;3.789
10.445000;-1.0292;-2.0123;3.0614;3.805
10.497000;-1.5214;-2.2745;1.9873;3.382
10.499000;-1.7734;-2.2512;0.5078;2.910
10.500000;-1.7938;-1.9735;-0.8945;2.813
10.501000;-1.6506;-1.6104;-1.9331;3.009
10.503000;-1.4452;-1.3401;-2.5532;3.225
10.505000;-1.1400;-1.1191;-2.8365;3.255
10.514000;-0.7675;-1.0134;-2.5813;2.877
10.525000;-0.3984;-1.0615;-1.8947;2.208
10.534000;-0.1990;-1.1971;-1.0974;1.636
10.558000;-0.1737;-1.3670;-0.3624;1.425
10.560000;-0.2881;-1.4830;0.0114;1.511
10.564000;-0.4608;-1.5481;-0.0138;1.615
10.574000;-0.6897;-1.6604;-0.9026;2.012
10.584000;-1.1029;-1.7242;-1.4532;2.510
10.595000;-1.0932;-1.5748;-1.7166;2.573
10.605000;-0.9163;-1.3505;-1.6633;2.330
10.614000;-0.6374;-1.0531;-1.4885;1.932
10.624000;-0.3725;-0.6915;-1.3097;1.527
10.634000;-0.2057;-0.2844;-1.1935;1.244
10.645000;-0.1300;0.0029;-1.1786;1.186
10.682000;-0.0474;0.2716;-1.3108;1.339
10.684000;0.0262;0.4578;-1.4844;1.554
10.685000;0.0477;0.6397;-1.5981;1.722
10.687000;0.0265;0.7811;-1.6931;1.865
10.695000;-0.0109;0.8810;-1.8216;2.023
10.705000;-0.0474;0.9239;-1.8349;2.055
10.714000;-0.0813;0.8942;-1.6724;1.898
10.724000;-0.1041;0.8625;-1.3157;1.577
10.734000;-0.1244;0.8201;-0.9324;1.248
10.745000;-0.1731;0.7895;-0.6106;1.013
10.773000;-0.2720;0.7305;-0.2924;0.833
10.775000;-0.3409;0.6982;0.0616;0.779
10.776000;-0.3394;0.7046;0.3865;0.872
10.784000;-0.2715;0.7519;0.5638;0.978
10.794000;-0.1696;0.8660;0.5906;1.062
10.805000;-0.0713;1.0187;0.6166;1.193
10.814000;0.0413;1.1173;0.6608;1.299
10.825000;0.1567;1.1658;0.6510;1.344
10.834000;0.2533;1.1393;0.6341;1.328
10.845000;0.3004;0.9997;0.7500;1.285
10.878000;0.3138;0.8079;0.9727;1.303
10.880000;0.1724;0.5947;1.6750;1.786
10.881000;-0.1218;0.3411;2.5502;2.576
10.884000;-0.2037;0.1931;2.6867;2.701
10.894000;0.0334;0.1907;2.5911;2.598
10.906000;0.4580;0.2445;2.5530;2.605
10.914000;1.0599;0.6613;2.4809;2.778
10.924000;1.3560;0.8416;2.0991;2.637
10.934000;1.7808;0.8474;1.8534;2.706
10.945000;2.0741;0.5944;1.9377;2.900
10.993000;1.9753;0.0656;2.0587;2.854
10.995000;1.5708;-0.5692;2.1888;2.754
10.996000;1.0560;-1.1877;2.5087;2.970
10.997000;0.6430;-1.7107;2.9104;3.437
10.998000;0.4071;-2.0380;3.3876;3.974
11.007000;0.3983;-2.1440;3.7403;4.330
11.014000;0.6049;-1.9388;3.5710;4.108
11.025000;0.9245;-1.4454;2.7533;3.244
11.034000;1.1049;-0.8575;1.5220;2.067
11.045000;1.1036;-0.3802;0.2758;1.199
11.082000;0.9940;-0.1451;-0.6964;1.222
11.084000;0.7337;-0.1009;-1.2593;1.461
11.085000;0.3818;-0.1977;-1.3741;1.440
11.087000;0.0268;-0.3244;-1.2031;1.246
11.095000;-0.2680;-0.4478;-0.8407;0.990
11.106000;-0.4052;-0.4628;-0.5477;0.824
11.114000;-0.4527;-0.3480;-0.4261;0.712
11.124000;-0.4890;-0.1641;-0.4015;0.654
11.134000;-0.5552;-0.0557;-0.4753;0.733
11.145000;-0.5782;0.0065;-0.5791;0.818
11.183000;-0.6209;0.0358;-0.7155;0.948
11.185000;-0.6741;0.0441;-0.9960;1.204
11.186000;-0.7939;0.0156;-1.2386;1.471
11.187000;-0.8779;-0.0575;-1.5062;1.744
11.194000;-0.9045;-0.1606;-1.7540;1.980
11.207000;-0.8151;-0.2103;-1.8800;2.060
11.214000;-0.6087;-0.1753;-1.9830;2.082
11.224000;-0.2920;-0.0122;-1.9061;1.928
11.234000;0.0215;0.2264;-1.7306;1.745
11.244000;0.4238;0.6502;-1.5708;1.752
11.283000;0.4634;0.6964;-1.7567;1.946
11.285000;0.3584;0.5663;-2.0081;2.117
11.286000;0.1661;0.3739;-2.2410;2.278
11.288000;-0.0581;0.1617;-2.2905;2.297
11.295000;-0.2247;-0.0397;-2.1367;2.149
11.306000;-0.3132;-0.1643;-1.7901;1.825
11.314000;-0.2822;-0.1980;-1.3691;1.412
11.324000;-0.2194;-0.1907;-0.8466;0.895
11.334000;-0.0881;-0.0472;-0.3721;0.385
11.345000;0.0864;0.2312;-0.0262;0.248
11.390000;0.2956;0.4972;0.1420;0.596
11.391000;0.5505;0.7338;0.0225;0.918
11.392000;0.7395;0.8957;-0.1519;1.171
11.393000;0.8183;0.9732;-0.2249;1.291
11.395000;0.8422;0.9318;-0.0755;1.258
11.405000;0.8611;0.8794;0.6069;1.372
11.414000;0.9067;0.7376;1.7050;2.067
11.427000;1.0335;0.4617;2.6362;2.869
11.434000;0.9835;0.2444;3.3980;3.546
11.469000;0.5079;0.2862;3.5650;3.612
11.472000;-0.0839;0.5437;2.7994;2.853
11.473000;-0.3060;0.7752;1.4095;1.637
11.475000;-0.1352;1.0423;0.4697;1.151
11.484000;-0.0323;1.3978;0.3594;1.444
11.495000;-0.0866;1.6846;-0.0163;1.687
11.505000;-0.0659;1.7337;-0.5305;1.814
11.515000;0.2768;1.5277;-0.5947;1.663
11.537000;0.8071;1.0639;-0.1105;1.340
11.539000;1.1272;0.4558;1.0266;1.591
11.545000;1.2419;-0.0204;2.4791;2.773
11.555000;1.2868;-0.3636;3.6547;3.892
11.584000;1.1707;-0.6509;4.6303;4.820
11.587000;0.1767;-1.2431;4.8967;5.055
11.589000;-0.5381;-1.4570;3.5643;3.888
11.594000;-1.1305;-1.5917;1.8217;2.670
11.606000;-1.5461;-1.4977;0.4502;2.199
11.614000;-1.6959;-1.4691;-0.6054;2.324
11.627000;-1.6365;-1.4066;-1.1485;2.444
11.635000;-1.4564;-1.3374;-1.1688;2.297
11.663000;-1.1299;-1.2859;-0.9275;1.947
11.665000;-0.7825;-1.2170;-0.5000;1.531
11.666000;-0.5669;-1.1598;-0.0798;1.293
11.674000;-0.5387;-1.1996;0.2077;1.331
11.684000;-0.5178;-1.2215;0.1421;1.334
11.694000;-0.5349;-1.3100;-0.1697;1.425
11.704000;-0.5828;-1.3620;-0.7062;1.641
11.715000;-0.6911;-1.3585;-1.4287;2.089
11.728000;-0.8210;-1.2774;-1.9656;2.484
11.734000;-0.9086;-1.1790;-1.9845;2.481
11.772000;-0.8407;-1.0820;-1.8325;2.288
11.775000;-0.6503;-0.9112;-1.8344;2.149
11.776000;-0.5034;-0.6816;-1.8913;2.072
11.776000;-0.3910;-0.4079;-2.0136;2.091
11.784000;-0.2173;-0.1809;-2.1576;2.176
11.795000;-0.0305;-0.0056;-2.3471;2.347
11.804000;0.1299;0.1913;-2.4161;2.427
11.814000;0.2111;0.3882;-2.4428;2.482
11.828000;0.1987;0.5136;-2.4868;2.547
11.834000;0.0732;0.5518;-2.3901;2.454
11.869000;-0.0319;0.5085;-2.1023;2.163
11.871000;-0.0675;0.4324;-1.6629;1.719
11.872000;-0.0598;0.3883;-1.2094;1.272
11.874000;-0.1093;0.3731;-0.7201;0.818
11.884000;-0.1807;0.4057;-0.3276;0.552
11.895000;-0.1778;0.4358;-0.0883;0.479
11.905000;0.0197;0.7380;0.3428;0.814
11.914000;0.0814;0.9882;0.4423;1.086
11.928000;0.0869;1.1802;0.6056;1.329
11.934000;0.0486;1.3133;0.8410;1.560
11.970000;0.0227;1.3694;1.0753;1.741
11.971000;-0.0062;1.2593;1.2773;1.794
11.972000;-0.0840;1.1299;1.5254;1.900
11.975000;-0.1856;0.9286;1.8748;2.100
11.984000;-0.2246;0.7786;2.2985;2.437
11.994000;-0.1422;0.7507;2.7184;2.824
12.004000;0.0883;0.9593;2.8757;3.033
12.015000;0.3576;1.2450;2.8038;3.089
12.028000;0.8211;1.4846;2.4736;2.999
12.034000;1.3403;1.6745;2.1541;3.040
12.065000;1.6401;1.7139;2.1337;3.191
12.066000;1.7242;1.4998;2.2024;3.174
12.068000;1.7033;0.9639;2.6041;3.258
12.074000;1.4710;0.1334;3.2578;3.577
12.084000;1.1362;-0.5750;3.8102;4.017
12.094000;0.6429;-1.0718;4.0968;4.283
12.104000;0.3203;-1.4418;4.2938;4.541
12.115000;0.3109;-1.6068;4.1882;4.497
12.132000;0.5620;-1.4932;3.8293;4.148
12.136000;0.8591;-1.2118;3.2341;3.559
12.176000;1.0660;-0.8993;2.3139;2.702
12.178000;1.0747;-0.6746;1.1485;1.711
12.179000;0.8759;-0.5466;-0.1415;1.042
12.180000;0.6445;-0.5182;-1.3339;1.569
12.184000;0.4023;-0.5571;-2.2085;2.313
12.195000;0.1379;-0.6491;-2.7295;2.809
12.204000;-0.1252;-0.6698;-2.8642;2.944
12.214000;-0.3735;-0.6377;-2.7578;2.855
12.229000;-0.5383;-0.5780;-2.5878;2.706
12.235000;-0.9325;-0.6662;-2.1946;2.476
12.276000;-1.0868;-0.7187;-1.9648;2.358
12.279000;-1.1565;-0.7166;-1.6995;2.177
12.280000;-1.1392;-0.6481;-1.5280;2.013
12.281000;-1.0305;-0.4904;-1.5560;1.930
12.285000;-0.8580;-0.2984;-1.6013;1.841
12.295000;-0.6385;-0.1195;-1.6989;1.819
12.305000;-0.4011;0.0158;-1.8847;1.927
12.314000;-0.1935;0.1393;-1.9360;1.951
12.328000;0.0018;0.2019;-1.9878;1.998
12.335000;0.1571;0.2501;-1.9652;1.987
12.370000;0.3358;0.2996;-1.8425;1.897
12.372000;0.4754;0.2922;-1.7348;1.822
12.375000;0.4876;0.2636;-1.5370;1.634
12.376000;0.3749;0.2537;-1.4369;1.507
12.384000;0.1355;0.1791;-1.4690;1.486
12.395000;-0.1529;0.0598;-1.6520;1.660
12.405000;-0.4127;-0.0382;-1.8722;1.917
12.414000;-0.5727;-0.0178;-1.8934;1.978
12.425000;-0.5412;0.0369;-1.8019;1.882
12.434000;-0.3372;0.2267;-1.5094;1.563
12.448000;-0.0878;0.4796;-1.0879;1.192
12.455000;0.0696;0.6935;-0.6663;0.964
12.496000;0.1576;0.7730;-0.4502;0.908
12.497000;0.2409;0.8944;-0.2947;0.972
12.498000;0.3376;1.0243;0.0057;1.079
12.499000;0.4814;1.0912;0.3905;1.255
12.504000;0.5649;0.9968;0.8003;1.398
12.514000;0.5209;0.8381;1.3451;1.668
12.527000;0.3784;0.6650;1.9318;2.078
12.534000;0.2623;0.5325;2.5758;2.643
12.545000;0.1193;0.5384;3.1305;3.179
12.554000;0.0100;0.6882;2.9452;3.025
12.590000;0.1150;0.8651;1.4827;1.720
12.591000;0.6301;1.3724;1.2703;1.973
12.592000;0.5797;1.6221;0.8095;1.903
12.594000;0.4574;1.7274;0.0923;1.789
12.604000;0.5405;1.5509;-0.0037;1.642
12.614000;0.7621;0.9586;0.9387;1.543
12.624000;0.9159;0.1705;2.2970;2.479
12.634000;0.9463;-0.4088;3.3835;3.537
12.647000;0.8663;-0.7838;4.3340;4.489
12.654000;0.6113;-1.0787;5.1316;5.279
12.704000;0.2137;-1.2443;5.3415;5.489
12.707000;-0.2982;-1.3392;4.5711;4.773
12.709000;-0.7853;-1.3467;2.8936;3.287
12.711000;-1.0788;-1.1723;1.1597;1.971
12.712000;-1.1446;-0.8942;-0.2338;1.471
12.715000;-1.0599;-0.7610;-1.0992;1.706
12.725000;-0.8316;-0.7310;-1.1967;1.630
12.734000;-0.4902;-0.7355;-0.7997;1.192
12.746000;-0.0690;-0.7428;-0.3240;0.813
12.754000;0.2243;-0.8336;0.0725;0.866
12.788000;0.3015;-1.0702;0.4178;1.188
12.789000;0.2616;-1.2758;0.3929;1.360
12.791000;-0.0165;-1.5835;0.1095;1.587
12.796000;-0.2948;-1.7250;-0.6565;1.869
12.804000;-0.6633;-1.8029;-1.5147;2.446
12.815000;-0.9659;-1.7727;-1.9431;2.802
12.825000;-1.1118;-1.7001;-2.1634;2.968
12.835000;-1.0503;-1.5696;-2.3879;3.045
12.845000;-0.9081;-1.3752;-2.5192;3.010
12.855000;-0.7422;-1.1077;-2.6004;2.922
12.890000;-0.5295;-0.7916;-2.6639;2.829
12.891000;-0.3212;-0.4357;-2.6520;2.707
12.892000;-0.1410;-0.0602;-2.6720;2.676
12.894000;0.0191;0.2616;-2.7493;2.762
12.904000;0.1030;0.6322;-2.6327;2.709
12.914000;-0.0241;0.6827;-2.5137;2.605
12.925000;-0.2229;0.6535;-2.3170;2.418
12.934000;-0.4102;0.5909;-2.0470;2.170
12.945000;-0.5209;0.5569;-1.6725;1.838
12.954000;-0.5734;0.5584;-1.2127;1.453
12.992000;-0.5649;0.5797;-0.7163;1.081
12.993000;-0.4656;0.6372;-0.2219;0.820
12.995000;-0.3267;0.7294;0.2497;0.837
12.996000;-0.2747;0.8851;0.6217;1.116
13.004000;-0.2740;0.9665;0.7707;1.266
13.015000;-0.3146;1.0226;0.8807;1.386
13.026000;-0.3368;1.0500;0.9939;1.484
13.034000;-0.3775;0.9943;0.9058;1.397
13.045000;-0.3412;0.9677;0.8390;1.325
13.055000;-0.2569;0.8472;0.9588;1.305
13.064000;-0.1051;0.6655;1.2578;1.427
13.100000;0.0553;0.4896;1.9297;1.992
13.101000;0.1178;0.3688;2.6981;2.726
13.102000;0.0944;0.4484;3.3064;3.338
13.104000;0.0669;0.5381;3.2109;3.256
13.114000;0.3581;0.7337;2.4636;2.595
13.125000;0.8909;0.8589;1.9244;2.288
13.134000;1.2978;0.8098;2.0526;2.560
13.144000;1.3127;0.7407;2.2744;2.729
13.154000;1.1970;0.7677;2.2147;2.632
13.164000;1.3097;0.7273;2.2612;2.712
13.191000;1.5787;0.4794;2.4331;2.940
13.193000;1.6370;0.1474;2.4888;2.983
13.194000;1.4103;-0.2866;2.5538;2.931
13.204000;0.9131;-0.8342;2.3495;2.655
13.214000;0.5141;-1.3470;2.3533;2.760
13.225000;0.2967;-1.7671;2.3220;2.933
13.234000;0.1121;-1.9675;2.1761;2.936
13.244000;0.1829;-1.6820;1.7778;2.454
13.254000;0.3998;-1.2433;1.0857;1.698
13.264000;0.7085;-0.8261;0.2317;1.113
13.274000;1.0279;-0.5233;-0.5657;1.285
13.291000;1.1680;-0.3598;-1.1094;1.651
13.294000;1.0692;-0.3056;-1.3108;1.719
13.304000;0.8087;-0.3278;-1.3216;1.584
13.314000;0.5349;-0.4118;-1.1529;1.336
13.325000;0.2834;-0.5188;-0.8665;1.049
13.334000;0.1014;-0.5480;-0.5380;0.775
13.344000;-0.0226;-0.4997;-0.2607;0.564
13.354000;-0.1372;-0.3776;-0.0800;0.410
13.364000;-0.2069;-0.2178;-0.1308;0.328
13.396000;-0.2623;-0.0981;-0.2282;0.361
13.397000;-0.3494;-0.0127;-0.2915;0.455
13.397000;-0.4393;-0.0191;-0.5949;0.740
13.404000;-0.5790;-0.0963;-1.0382;1.193
13.414000;-0.7667;-0.2169;-1.3987;1.610
13.426000;-0.8452;-0.2905;-1.6366;1.865
13.435000;-0.7311;-0.2664;-1.8046;1.965
13.445000;-0.5225;-0.2433;-1.8483;1.936
13.455000;-0.2862;-0.0790;-1.8598;1.883
13.467000;-0.0929;0.1631;-1.9655;1.974
13.531000;0.1327;0.3583;-2.0912;2.126
13.533000;0.3476;0.4878;-2.1787;2.260
13.536000;0.4545;0.4998;-2.2298;2.330
13.537000;0.5148;0.4681;-2.2355;2.341
13.539000;0.4498;0.4103;-2.0686;2.156
13.541000;0.3172;0.3264;-1.7476;1.806
13.543000;0.1379;0.1803;-1.3958;1.414
13.545000;-0.0104;0.0393;-1.0655;1.066
13.554000;-0.1196;-0.0072;-0.7269;0.737
13.564000;0.0685;0.5072;-0.6522;0.829
13.602000;0.3338;0.8440;-0.7373;1.169
13.604000;0.6034;1.1530;-0.8119;1.534
13.606000;0.7922;1.3739;-0.7609;1.759
13.607000;0.8118;1.4790;-0.3103;1.715
13.614000;0.7561;1.3960;0.5138;1.669
13.625000;0.7278;1.1064;1.4179;1.940
13.635000;0.7236;0.7477;2.0842;2.330
13.648000;0.5094;0.4838;2.5967;2.690
13.654000;0.0224;0.3953;2.4737;2.505
13.686000;-0.2075;0.3211;1.6010;1.646
13.687000;0.0832;0.2715;0.9953;1.035
13.688000;0.4680;0.3723;1.1863;1.329
13.696000;0.4916;0.6648;1.7035;1.894
13.704000;0.4197;1.0629;1.6500;2.007
13.714000;0.6200;1.2200;1.4988;2.030
13.724000;1.0452;1.1031;1.6610;2.251
13.734000;1.2921;0.6370;1.8966;2.382
13.749000;1.0323;0.0887;2.4235;2.636
13.755000;0.5005;-0.3087;2.9987;3.056
13.804000;0.0026;-0.6069;3.3536;3.408
13.807000;-0.4204;-0.7766;3.4084;3.521
13.810000;-0.7160;-0.8089;3.0962;3.279
13.811000;-0.9031;-0.7671;2.2309;2.526
13.813000;-1.0184;-0.6220;1.0705;1.603
13.815000;-1.0156;-0.4335;-0.0725;1.107
13.824000;-0.9238;-0.2850;-1.1320;1.489
13.836000;-0.7940;-0.2620;-1.8344;2.016
13.873000;-0.6594;-0.3282;-2.0789;2.206
13.874000;-0.4518;-0.5132;-1.8325;1.956
13.876000;-0.2829;-0.8026;-1.4182;1.654
13.877000;-0.2150;-1.0641;-0.9890;1.469
13.885000;-0.3434;-1.2808;-0.5623;1.440
13.894000;-1.0472;-1.9709;-0.3882;2.265
13.904000;-1.3973;-2.1653;-0.5326;2.631
13.914000;-1.5454;-2.0597;-0.7603;2.685
13.924000;-1.4139;-1.6815;-1.0406;2.431
13.934000;-1.0544;-1.2667;-1.2972;2.097
13.949000;-0.6026;-0.8890;-1.7321;2.038
13.954000;-0.2771;-0.5319;-2.2109;2.291
13.989000;-0.0430;-0.1769;-2.4875;2.494
13.991000;0.1369;0.1336;-2.5791;2.586
13.993000;0.3142;0.3702;-2.6409;2.685
13.994000;0.4439;0.5596;-2.6036;2.700
14.004000;0.4979;0.7692;-2.3845;2.555
14.015000;0.4799;0.9456;-2.0790;2.334
14.025000;0.4050;1.0703;-1.8572;2.181
14.035000;0.2973;1.1467;-1.7354;2.101
14.048000;0.1615;1.1472;-1.6537;2.019
14.054000;-0.0315;1.0699;-1.4915;1.836
14.084000;-0.2056;0.9689;-1.1987;1.555
14.086000;-0.3547;0.8823;-0.6192;1.135
14.087000;-0.4351;0.7980;0.0888;0.913
14.094000;-0.4722;0.7245;0.8228;1.194
14.104000;-0.4990;0.6822;1.6374;1.843
14.114000;-0.5571;0.6173;2.2902;2.437
14.125000;-0.5569;0.5881;2.4920;2.620
14.134000;-0.5093;0.7359;2.4457;2.604
14.147000;-0.3291;0.9313;2.2221;2.432
14.154000;-0.0657;1.0604;1.8868;2.165
14.186000;0.0959;1.2080;1.7394;2.120
14.188000;0.1607;1.3149;1.6879;2.146
14.189000;0.0273;1.2855;1.6317;2.077
14.197000;-0.1125;1.0287;1.2858;1.651
14.204000;-0.1479;0.6807;0.8622;1.108
14.214000;-0.0238;0.5043;1.0211;1.139
14.224000;0.3259;0.4990;2.2088;2.288
14.234000;1.3722;0.4479;2.8885;3.229
14.248000;1.6383;0.1144;3.8008;4.140
14.254000;1.6376;-0.4367;4.6013;4.903
14.308000;1.6198;-0.9934;5.1165;5.458
14.311000;1.6753;-1.4845;5.2829;5.738
14.312000;1.7047;-1.8060;5.2812;5.836
14.314000;1.6621;-1.8829;4.9844;5.581
14.315000;1.5178;-1.8894;4.4562;5.073
14.316000;1.3864;-1.8527;3.5891;4.270
14.324000;1.3022;-1.7654;2.3565;3.220
14.334000;1.1152;-1.7126;1.1221;2.332
14.348000;0.8824;-1.6948;0.0648;1.912
14.355000;0.6699;-1.6364;-0.6219;1.874
14.405000;0.5005;-1.4766;-1.0356;1.872
14.407000;0.3404;-1.1897;-1.3635;1.841
14.408000;0.1895;-0.7827;-1.5392;1.737
14.409000;0.1030;-0.3054;-1.5714;1.604
14.410000;0.0088;0.0392;-1.4461;1.447
14.416000;-0.1252;0.2234;-1.2939;1.319
14.424000;-0.3664;0.2508;-1.3123;1.385
14.434000;-0.6074;0.2329;-1.5891;1.717
14.451000;-0.7904;0.2146;-2.0744;2.230
14.455000;-0.9065;0.1634;-2.4884;2.653
14.497000;-0.9687;0.0972;-2.5737;2.752
14.499000;-0.9172;0.0581;-2.4102;2.579
14.500000;-0.6966;0.0997;-2.1554;2.267
14.501000;-0.4291;0.3080;-2.0718;2.138
14.504000;-0.1614;0.5308;-1.9325;2.011
14.514000;0.2279;0.8048;-1.8247;2.007
14.524000;0.6376;1.0454;-1.7126;2.105
14.534000;0.8981;1.1708;-1.7305;2.274
14.549000;0.9436;1.1718;-2.0044;2.506
14.554000;0.7238;1.0506;-2.7903;3.068
14.585000;-0.0266;0.6061;-3.0259;3.086
14.587000;-0.2674;0.3684;-2.9701;3.005
14.588000;-0.3631;0.2544;-2.6085;2.646
14.595000;-0.3798;0.1836;-2.1047;2.147
14.604000;-0.3114;0.1777;-1.5201;1.562
14.615000;-0.2506;0.2073;-0.9627;1.016
14.624000;-0.1834;0.1815;-0.2879;0.387
14.634000;-0.1239;0.0623;0.2734;0.307
14.650000;-0.1367;-0.0232;0.6081;0.624
14.655000;-0.1972;0.0472;0.7094;0.738
14.715000;-0.2895;0.2289;0.7000;0.791
14.716000;-0.3080;0.4571;0.5436;0.774
14.717000;-0.1801;0.6255;0.3977;0.763
14.718000;0.0049;0.7369;0.5005;0.891
14.719000;0.2021;0.8075;0.9364;1.253
14.720000;0.3312;0.7814;1.6387;1.845
14.724000;0.2350;0.7579;2.4022;2.530
14.734000;-0.0374;0.7499;2.5250;2.634
14.750000;-0.1320;0.9605;1.8052;2.049
14.754000;0.0388;1.1171;1.1090;1.575
14.805000;0.4662;1.2729;0.7702;1.559
14.807000;0.7010;1.4605;0.7332;1.778
14.807000;0.5771;1.6769;0.7079;1.909
14.809000;0.5413;1.7811;0.7212;1.996
14.810000;0.7683;1.4851;1.0646;1.982
14.825000;0.8782;0.1284;2.6395;2.785
14.834000;0.4927;-0.3241;3.4656;3.515
14.845000;0.1714;-0.6766;4.2134;4.271
14.854000;-0.0418;-0.8489;4.4503;4.531
14.866000;-0.3506;-0.9647;4.1508;4.276
14.874000;-0.6727;-0.8468;2.9024;3.097
14.915000;-0.8795;-0.5431;-0.3373;1.087
14.916000;-0.8965;0.0469;-1.5480;1.790
14.917000;-0.7281;0.1045;-2.1616;2.283
14.918000;-0.5328;-0.0068;-2.2841;2.345
14.924000;-0.3336;-0.2701;-1.9527;1.999
14.934000;-0.2070;-0.6468;-1.3845;1.542
14.949000;-0.1881;-1.0291;-0.7600;1.293
14.954000;-0.2784;-1.3293;-0.2505;1.381
14.976000;-0.5406;-1.5862;0.0318;1.676
14.978000;-0.8608;-1.8086;0.0535;2.004
14.984000;-1.1069;-1.9173;-0.2151;2.224
14.995000;-1.1906;-1.8996;-0.7908;2.377
15.004000;-1.1093;-1.6867;-1.4898;2.509
15.014000;-0.9467;-1.3658;-2.0519;2.640
15.024000;-0.7630;-1.0073;-2.4118;2.723
15.034000;-0.5540;-0.7290;-2.6083;2.764
15.048000;-0.3586;-0.5000;-2.7204;2.789
15.054000;-0.2058;-0.3135;-2.7467;2.772
15.092000;-0.1054;-0.1389;-2.7459;2.751
15.094000;0.0040;0.0306;-2.7414;2.742
15.096000;0.0959;0.2547;-2.7324;2.746
15.097000;0.2025;0.5111;-2.7569;2.811
15.104000;0.2552;0.7635;-2.7789;2.893
15.114000;0.2501;0.9590;-2.6988;2.875
15.124000;0.2005;1.0861;-2.4978;2.731
15.134000;0.0639;1.1244;-2.0926;2.376
15.149000;-0.1553;1.0314;-1.5389;1.859
15.154000;-0.3802;0.8246;-0.8435;1.239
15.194000;-0.5708;0.6137;-0.0529;0.840
15.196000;-0.6574;0.4380;0.8899;1.190
15.197000;-0.6730;0.3534;1.8020;1.956
15.197000;-0.5937;0.4081;2.2650;2.377
15.204000;-0.4283;0.5740;2.5228;2.622
15.214000;-0.1817;0.8046;2.6996;2.823
15.224000;0.2489;1.1352;2.6936;2.934
15.234000;0.2559;1.1817;2.9861;3.222
15.249000;0.1255;1.2154;3.2436;3.466
15.254000;-0.0713;1.1317;3.3837;3.569
15.292000;-0.0402;1.1818;3.2489;3.457
15.294000;0.3119;1.1340;2.8576;3.090
15.296000;0.7509;1.0730;2.5500;2.867
15.296000;1.0153;1.0648;2.4537;2.861
15.304000;1.1296;1.0496;2.3866;2.841
15.314000;1.2916;0.9211;2.0893;2.623
15.324000;1.4172;0.4731;2.0955;2.574
15.334000;1.2831;-0.1803;2.3625;2.695
15.349000;0.9266;-0.8218;2.3982;2.699
15.354000;0.5220;-1.3687;2.3759;2.791
15.393000;0.1627;-1.8771;2.4685;3.105
15.395000;0.0283;-2.2794;2.5406;3.413
15.397000;0.0821;-2.4236;2.6580;3.598
15.398000;0.1817;-2.3133;2.6409;3.516
15.404000;0.2849;-2.0159;2.2984;3.070
15.414000;0.4730;-1.6103;1.3384;2.147
15.424000;0.6563;-1.1844;0.0711;1.356
15.434000;0.7471;-0.8691;-0.9630;1.497
15.451000;0.7597;-0.6797;-1.7311;2.009
15.454000;0.6317;-0.5530;-2.1118;2.273
15.495000;0.3764;-0.4636;-2.0648;2.149
15.498000;0.1288;-0.4264;-1.7272;1.784
15.500000;-0.0559;-0.4306;-1.2208;1.296
15.502000;-0.2017;-0.4006;-0.7327;0.859
15.505000;-0.3079;-0.3572;-0.5358;0.714
15.515000;-0.4644;-0.3206;-0.6681;0.875
15.525000;-0.6203;-0.2674;-1.0736;1.268
15.536000;-0.7345;-0.1206;-1.5412;1.712
15.545000;-0.7956;0.0222;-1.7786;1.949
15.555000;-0.7018;0.0938;-1.9814;2.104
15.615000;-0.5877;0.1819;-2.0329;2.124
15.617000;-0.4140;0.2967;-2.1226;2.183
15.619000;-0.2124;0.4661;-2.2569;2.314
15.620000;-0.0004;0.6433;-2.3358;2.423
15.620000;0.1505;0.7355;-2.3375;2.455
15.621000;0.2223;0.8021;-2.2343;2.384
15.624000;0.1696;0.7967;-2.1123;2.264
15.635000;-0.0032;0.7259;-1.9576;2.088
15.644000;-0.1961;0.5883;-1.7459;1.853
15.656000;-0.3069;0.4413;-1.5563;1.646
15.703000;-0.2729;0.3815;-1.3794;1.457
15.704000;-0.1869;0.4282;-1.1316;1.224
15.705000;-0.0915;0.5362;-0.8070;0.973
15.707000;-0.0985;0.6386;-0.3231;0.722
15.708000;-0.1863;0.7107;0.3012;0.794
15.714000;-0.2536;0.7338;0.8642;1.162
15.724000;-0.1998;0.7281;1.1521;1.377
15.734000;-0.0414;0.7630;1.1337;1.367
15.744000;0.0951;0.8244;1.0259;1.320
15.755000;0.1424;0.8934;0.9103;1.283
15.804000;0.1769;0.9539;1.0273;1.413
15.806000;0.3452;0.9333;1.4178;1.732
15.807000;0.5224;0.9137;2.0331;2.289
15.807000;0.4352;0.9700;2.4191;2.642
15.808000;0.3193;1.1436;1.8743;2.219
15.814000;0.5043;1.1112;0.6773;1.396
15.824000;0.7409;0.9757;-0.1223;1.231
15.834000;0.4968;0.9520;-0.1571;1.085
15.844000;-0.0582;0.9203;0.2717;0.961
15.855000;-0.2270;0.6593;0.8845;1.126
15.895000;0.0704;0.1583;1.8418;1.850
15.897000;0.4108;-0.3836;2.7919;2.848
15.899000;0.2822;-1.1035;3.9056;4.068
15.900000;0.1091;-1.2182;4.1109;4.289
15.904000;0.1550;-1.1254;3.5674;3.744
15.915000;0.1034;-0.9250;2.3060;2.487
15.924000;-0.1648;-0.6860;0.7847;1.055
15.935000;-0.4601;-0.4730;-0.4392;0.793
15.951000;-0.5810;-0.2695;-1.3232;1.470
15.955000;-0.4982;-0.1605;-1.9493;2.018
16.013000;-0.3463;-0.1675;-2.3792;2.410
16.015000;-0.1918;-0.2066;-2.4640;2.480
16.016000;-0.0683;-0.2943;-2.0776;2.099
16.017000;0.0437;-0.4840;-1.5076;1.584
16.019000;0.1012;-0.7378;-0.8619;1.139
16.020000;0.0474;-1.0164;-0.3870;1.089
16.024000;-0.2101;-1.3190;0.0317;1.336
16.035000;-0.5220;-1.5804;0.1098;1.668
16.045000;-0.8774;-1.8860;0.1019;2.083
16.054000;-1.1096;-2.0626;-0.0511;2.343
16.100000;-1.1114;-2.0118;-0.4132;2.335
16.102000;-0.8816;-1.7047;-0.8120;2.084
16.104000;-0.5791;-1.3214;-1.1379;1.838
16.104000;-0.2633;-0.8992;-1.3400;1.635
16.106000;0.0106;-0.5054;-1.5455;1.626
16.115000;0.2184;-0.1778;-1.7979;1.820
16.125000;0.3157;0.0393;-2.0606;2.085
16.134000;0.4017;0.2432;-2.3417;2.388
16.144000;0.5028;0.4790;-2.5083;2.603
16.154000;0.5538;0.7319;-2.4981;2.661
16.201000;0.6173;0.9783;-2.4612;2.719
16.202000;0.6177;1.1480;-2.4534;2.778
16.203000;0.5624;1.3405;-2.2038;2.640
16.204000;0.5152;1.4166;-1.7517;2.311
16.205000;0.4472;1.3025;-1.1805;1.814
16.215000;0.2977;1.0583;-0.6606;1.283
16.224000;-0.2196;0.5522;-0.0314;0.595
16.234000;-0.5026;0.3502;0.3264;0.694
16.245000;-0.7408;0.2393;0.6037;0.985
16.255000;-0.7737;0.3299;0.9826;1.293
16.293000;-0.6477;0.4543;1.4546;1.656
16.297000;-0.4329;0.5336;1.4770;1.629
16.299000;-0.3046;0.5084;1.2488;1.382
16.301000;-0.2047;0.5772;1.0423;1.209
16.304000;-0.2725;0.6022;1.2431;1.408
16.314000;-0.5165;0.6419;2.0627;2.221
16.324000;-0.6688;0.6458;2.9903;3.132
16.334000;-0.4182;0.6423;3.5236;3.606
16.344000;0.1575;0.5730;3.6866;3.734
16.355000;0.6923;0.4636;3.6581;3.752
16.404000;0.9026;0.4542;3.4970;3.640
16.406000;0.9757;0.4962;3.0168;3.209
16.407000;1.2381;0.4614;2.4078;2.746
16.409000;1.4677;0.1921;2.2988;2.734
16.411000;1.3411;-0.2585;2.7117;3.036
16.417000;0.9001;-0.7797;3.0426;3.267
16.424000;0.4673;-1.2943;3.1380;3.426
16.434000;0.1858;-1.7545;3.0942;3.562
16.445000;0.0495;-2.0856;3.1586;3.785
16.455000;0.0252;-2.1652;3.0980;3.780
16.499000;0.0419;-2.0653;2.7408;3.432
16.501000;0.0781;-1.8356;2.0569;2.758
16.503000;0.2040;-1.5120;1.1722;1.924
16.504000;0.3692;-1.2171;0.1494;1.281
16.505000;0.4430;-0.9312;-0.7497;1.275
16.516000;0.4008;-0.6408;-1.1952;1.414
16.525000;0.2247;-0.4239;-1.2328;1.323
16.535000;0.0454;-0.3090;-1.0497;1.095
16.544000;-0.0895;-0.2340;-0.7868;0.826
16.555000;-0.2608;-0.1935;-0.7422;0.810
16.604000;-0.4024;-0.1392;-0.8988;0.995
16.606000;-0.4670;0.0053;-1.1279;1.221
16.607000;-0.4397;0.1073;-1.4687;1.537
16.608000;-0.4269;0.1667;-1.9587;2.012
16.609000;-0.4954;0.2632;-2.3017;2.369
16.615000;-0.5308;0.3503;-2.4600;2.541
16.624000;-0.4536;0.4131;-2.3947;2.472
16.634000;-0.2397;0.5073;-2.2465;2.316
16.644000;-0.0530;0.5455;-2.1223;2.192
16.655000;0.0734;0.5732;-1.9854;2.068
16.699000;0.2257;0.6260;-1.9673;2.077
16.701000;0.3438;0.6869;-1.9938;2.137
16.702000;0.4539;0.7496;-2.0454;2.225
16.705000;0.5443;0.8252;-2.1817;2.395
16.706000;0.4756;0.8667;-2.1845;2.398
16.716000;0.3154;0.8203;-1.9949;2.180
16.724000;0.1810;0.6728;-1.6551;1.796
16.735000;0.0961;0.4969;-1.2113;1.313
16.744000;0.0184;0.3681;-0.7087;0.799
16.755000;-0.0869;0.2489;-0.1145;0.287
16.801000;-0.1689;0.2037;0.5707;0.629
16.803000;-0.1847;0.2113;1.1949;1.227
16.804000;-0.1412;0.3257;1.5678;1.607
16.805000;-0.1036;0.4716;1.6391;1.709
16.806000;-0.0362;0.5630;1.4520;1.558
16.815000;-0.0180;0.6026;1.1805;1.326
16.824000;-0.0956;0.4894;1.0291;1.144
16.834000;-0.1329;0.4194;1.1862;1.265
16.844000;-0.1327;0.5221;1.8130;1.891
16.855000;-0.2522;0.7438;2.5287;2.648
16.916000;-0.2687;1.0270;2.7101;2.911
16.918000;0.1844;1.3452;2.1246;2.521
16.919000;1.4131;1.9308;0.9461;2.573
16.920000;1.3522;1.9677;0.4022;2.421
16.922000;0.9908;1.7357;-0.0889;2.001
16.923000;0.7764;1.2430;-0.1421;1.472
16.924000;0.7155;0.4268;0.6675;1.068
16.934000;0.4883;-0.5307;2.1700;2.287
16.944000;-0.0345;-1.3069;3.5792;3.811
16.955000;-0.6196;-1.7619;4.6150;4.979
16.997000;-1.0866;-1.9328;4.9060;5.384
16.999000;-1.1861;-1.7321;4.0723;4.582
17.001000;-0.9780;-1.1981;2.2388;2.721
17.002000;-0.7960;-0.5542;0.2800;1.010
17.004000;-0.7011;-0.0271;-1.3637;1.534
17.017000;-0.5991;0.1681;-2.5653;2.640
17.024000;-0.4313;0.1569;-3.2223;3.255
17.035000;-0.2283;-0.0770;-3.0556;3.065
17.044000;-0.0047;-0.4034;-2.3792;2.413
17.055000;0.1197;-0.7566;-1.4850;1.671
17.107000;-0.0038;-1.1252;-0.5104;1.236
17.109000;-0.2999;-1.3934;0.1492;1.433
17.110000;-0.6779;-1.6063;0.4619;1.804
17.111000;-1.1120;-1.8643;0.6626;2.270
17.111000;-1.4047;-2.0034;0.4902;2.495
17.118000;-1.5001;-2.0084;0.0551;2.507
17.124000;-1.4237;-1.8385;-0.4673;2.372
17.135000;-1.2472;-1.6020;-1.1841;2.350
17.144000;-1.0380;-1.3203;-1.7939;2.457
17.154000;-0.7995;-0.9551;-2.0727;2.418
17.164000;-0.5535;-0.6215;-2.1643;2.319
17.199000;-0.3303;-0.3696;-2.1742;2.230
17.201000;-0.2024;-0.1613;-2.1827;2.198
17.203000;-0.1112;0.0530;-2.0756;2.079
17.205000;-0.0002;0.2656;-1.9847;2.002
17.216000;0.2687;0.8587;-2.2031;2.380
17.225000;0.4119;1.0990;-2.3385;2.616
17.235000;0.5316;1.2368;-2.3880;2.741
17.244000;0.5788;1.3340;-2.1534;2.598
17.254000;0.5053;1.3708;-1.7892;2.310
17.296000;0.3294;1.3088;-1.1639;1.782
17.298000;0.1239;1.1310;-0.4845;1.237
17.299000;-0.0640;0.9199;-0.0426;0.923
17.300000;-0.1982;0.8203;0.2630;0.884
17.304000;-0.2859;0.7523;0.4166;0.906
17.316000;-0.3398;0.7432;0.5879;1.007
17.324000;-0.4229;0.7510;0.7884;1.168
17.334000;-0.4559;0.7368;0.8993;1.249
17.344000;-0.3117;0.8092;0.9388;1.278
17.354000;-0.0779;1.0178;1.0658;1.476
17.399000;0.0677;1.2373;1.5076;1.952
17.400000;0.0640;1.3569;1.9958;2.414
17.401000;0.1248;1.3313;2.1581;2.539
17.402000;0.3678;1.0895;1.8228;2.155
17.404000;0.5662;0.7519;1.5428;1.807
17.417000;0.4666;0.5003;1.7092;1.841
17.425000;0.3049;0.3381;2.2433;2.289
17.436000;0.4366;0.2411;3.0046;3.046
17.445000;0.7964;0.0789;4.1743;4.250
17.456000;1.0467;-0.2279;5.0651;5.177
17.525000;0.9967;-0.4978;5.5282;5.639
17.527000;0.7503;-0.6983;5.4974;5.592
17.529000;0.5894;-0.9120;4.9778;5.095
17.531000;0.5450;-1.1707;4.2242;4.417
17.533000;0.5761;-1.3876;3.3328;3.656
17.535000;0.5813;-1.4536;2.4870;2.939
17.536000;0.5978;-1.3579;1.6193;2.196
17.537000;0.6484;-1.0065;-0.3695;1.253
17.545000;0.7447;-0.9157;-1.1745;1.665
17.555000;0.8248;-0.8564;-1.7305;2.100
17.565000;0.7722;-0.7568;-1.9821;2.258
17.600000;0.5092;-0.7342;-1.8843;2.085
17.601000;0.2161;-0.7327;-1.7414;1.902
17.603000;0.0165;-0.7459;-1.6025;1.768
17.605000;-0.1513;-0.7549;-1.5705;1.749
17.617000;-0.3008;-0.7580;-1.6183;1.812
17.624000;-0.4179;-0.6780;-1.8421;2.007
17.634000;-0.4148;-0.5472;-2.1566;2.263
17.644000;-0.2902;-0.3275;-2.1709;2.215
17.655000;-0.1084;-0.1368;-2.0053;2.013
17.664000;0.0883;0.0210;-1.8212;1.823
17.703000;0.1997;0.1247;-1.7805;1.796
17.704000;0.2029;0.1905;-1.8072;1.829
17.705000;0.2170;0.2468;-1.8393;1.868
17.706000;0.2043;0.2722;-1.8898;1.920
17.714000;0.2003;0.2778;-2.0539;2.082
17.724000;0.1558;0.3257;-2.1999;2.229
17.734000;0.1519;0.4198;-2.2435;2.288
17.744000;0.2030;0.5729;-2.1663;2.250
17.755000;0.2751;0.7339;-1.9572;2.108
17.764000;0.3133;0.8229;-1.5166;1.754
17.774000;0.2498;0.8144;-0.8951;1.236
17.835000;0.0210;0.6915;-0.2459;0.734
17.837000;-0.2677;0.5639;0.1873;0.652
17.838000;-0.4472;0.5162;0.3825;0.783
17.839000;-0.4963;0.4797;0.3869;0.791
17.839000;-0.4580;0.4484;0.4640;0.791
17.840000;-0.4339;0.4168;0.8188;1.016
17.844000;-0.5073;0.4017;1.2549;1.412
17.855000;-0.6130;0.4239;1.6219;1.785
17.864000;-0.6841;0.5367;1.8278;2.024
17.875000;-0.6669;0.7636;1.3972;1.726
17.920000;0.4367;1.3264;0.9869;1.710
17.922000;1.4447;1.5934;0.8063;2.297
17.923000;2.0041;1.7900;1.0274;2.877
17.924000;1.9952;1.6795;1.4975;3.007
17.926000;1.7204;1.1621;2.5811;3.312
17.935000;1.4139;0.3299;3.7116;3.985
17.944000;1.0321;-0.5201;4.5084;4.654
17.955000;0.3900;-1.3873;5.0039;5.207
17.964000;-0.4094;-2.0567;5.2914;5.692
18.011000;-1.0967;-2.4938;5.2529;5.917
18.013000;-1.4781;-2.5467;4.3532;5.256
18.017000;-1.5191;-2.0653;2.9111;3.879
18.019000;-1.4842;-1.2628;1.3657;2.380
18.020000;-1.4023;-0.5050;0.1115;1.495
18.025000;-1.1225;0.0862;-0.8865;1.433
18.034000;-0.6719;0.4495;-1.5935;1.787
18.044000;-0.1547;0.6256;-2.0763;2.174
18.055000;0.3135;0.6482;-2.2851;2.396
18.065000;0.6825;0.5502;-2.1224;2.296
18.102000;0.8134;0.3298;-1.6876;1.902
18.103000;0.6784;-0.0782;-1.1122;1.305
18.104000;0.3734;-0.4935;-0.5415;0.822
18.106000;-0.0007;-0.8773;-0.2099;0.902
18.114000;-0.2984;-1.2107;-0.2680;1.275
18.124000;-0.5659;-1.4910;-0.5480;1.686
18.135000;-0.7027;-1.6178;-0.9398;1.999
18.144000;-0.6540;-1.5506;-1.4552;2.225
18.154000;-0.5331;-1.3739;-1.9294;2.428
18.165000;-0.3971;-1.1397;-2.2607;2.563
18.175000;-0.1814;-0.8981;-2.4664;2.631
18.233000;0.0626;-0.6672;-2.7197;2.801
18.235000;0.2856;-0.4124;-3.0385;3.080
18.236000;0.3579;-0.1752;-3.3132;3.337
18.238000;0.3104;0.2363;-3.4453;3.467
18.239000;0.3041;0.4514;-3.5109;3.553
18.240000;0.2254;0.7179;-3.4653;3.546
18.244000;0.1644;0.9289;-3.2019;3.338
18.254000;0.1463;1.0358;-2.7901;2.980
18.265000;0.1541;1.0580;-2.1680;2.417
18.275000;0.1677;1.0379;-1.4634;1.802
18.317000;0.1214;1.0268;-0.7309;1.266
18.319000;-0.0004;1.0544;0.2360;1.081
18.320000;-0.1695;0.9743;1.1929;1.550
18.321000;-0.2782;0.8506;1.6851;1.908
18.324000;-0.3516;0.8814;1.9066;2.130
18.334000;-0.3627;1.0347;2.0223;2.300
18.344000;-0.2477;1.2172;2.1432;2.477
18.361000;-0.0521;1.3594;2.2085;2.594
18.416000;0.1719;1.5523;2.2338;2.726
18.418000;0.1437;1.5968;2.5340;2.999
18.419000;-0.0607;1.5985;2.6982;3.137
18.420000;-0.1755;1.6257;2.5380;3.019
18.421000;0.0957;1.5153;2.2212;2.691
18.421000;0.4980;1.3474;2.3410;2.747
18.424000;0.6939;1.2111;2.8616;3.184
18.435000;0.7502;1.0120;3.0173;3.270
18.444000;0.8324;0.6797;3.0635;3.247
18.457000;0.8731;0.1279;3.2851;3.402
18.465000;0.6779;-0.4741;3.5399;3.635
18.504000;0.2554;-1.0185;3.4957;3.650
18.506000;-0.1793;-1.5244;3.1038;3.463
18.507000;-0.3572;-1.9458;2.6903;3.339
18.509000;-0.3166;-2.2817;2.4056;3.331
18.515000;-0.1271;-2.4363;2.1260;3.236
18.524000;0.0489;-2.3173;1.7902;2.929
18.535000;0.1573;-1.9848;1.2912;2.373
18.544000;0.5653;-1.0611;-0.7265;1.405
18.583000;0.6791;-0.8014;-1.6524;1.958
18.585000;0.6360;-0.7008;-2.2270;2.420
18.586000;0.4864;-0.6314;-2.5179;2.641
18.588000;0.2545;-0.5712;-2.6163;2.690
18.594000;-0.0164;-0.4839;-2.3033;2.354
18.619000;-0.1693;-0.4297;-1.8938;1.949
18.620000;-0.1690;-0.3293;-1.6568;1.698
18.624000;-0.1707;-0.2260;-1.3895;1.418
18.636000;-0.2163;-0.1213;-1.1935;1.219
18.644000;-0.1757;0.0208;-1.2187;1.231
18.657000;-0.1656;0.1543;-1.4301;1.448
18.664000;-0.1876;0.2195;-1.7238;1.748
18.717000;-0.2596;0.2234;-1.9731;2.003
18.719000;-0.2975;0.2269;-2.0874;2.121
18.720000;-0.2609;0.2232;-2.1308;2.158
18.721000;-0.1058;0.2842;-2.1887;2.210
18.723000;0.1265;0.4277;-2.2658;2.309
18.724000;0.3314;0.6293;-2.3200;2.427
18.734000;0.5061;0.8642;-2.3881;2.590
18.744000;0.6225;1.0655;-2.4921;2.781
18.754000;0.6308;1.1591;-2.5307;2.854
18.764000;0.5322;1.1312;-2.3863;2.694
18.775000;0.3423;1.0093;-2.0542;2.314
18.848000;0.1167;0.8283;-1.5702;1.779
18.850000;-0.1608;0.5884;-1.0055;1.176
18.851000;-0.4352;0.4635;-0.4252;0.765
18.852000;-0.6422;0.4947;-0.0575;0.813
18.852000;-0.7476;0.5374;0.2291;0.949
18.853000;-0.7117;0.5742;0.5765;1.081
18.854000;-0.5305;0.6041;0.9079;1.213
18.855000;-0.3266;0.6242;1.3638;1.535
18.864000;-0.2257;0.6120;1.8351;1.948
18.874000;-0.2093;0.7098;2.6303;2.732
18.890000;-0.2655;0.7582;2.7023;2.819
18.894000;-0.2988;0.9388;2.3110;2.512
18.938000;0.6346;1.2915;1.6440;2.185
18.940000;1.3239;1.7585;1.1471;2.482
18.941000;1.5762;2.1451;0.9257;2.818
18.943000;1.4971;2.1848;1.1366;2.882
18.945000;1.5169;1.8280;1.8569;3.015
18.954000;1.5803;0.9683;2.9031;3.444
18.964000;1.3571;0.0335;4.0488;4.270
18.975000;0.8213;-0.6958;5.2435;5.353
19.027000;0.3057;-1.1718;6.0529;6.173
19.029000;-0.0132;-1.4080;5.9437;6.108
19.031000;-0.2840;-1.3311;4.7478;4.939
19.032000;-0.5508;-1.0205;3.0004;3.217
19.033000;-0.7612;-0.6595;1.1679;1.542
19.039000;-0.9238;-0.3553;-0.3155;1.039
19.044000;-0.9610;-0.2078;-1.4542;1.755
19.054000;-0.8261;-0.2828;-2.2872;2.448
19.064000;-0.5458;-0.5184;-2.6823;2.786
19.075000;-0.2463;-0.8047;-2.6130;2.745
19.120000;-0.0889;-1.0523;-2.2975;2.529
19.122000;-0.1578;-1.2894;-1.7738;2.199
19.123000;-0.3195;-1.4048;-1.1514;1.844
19.124000;-0.5591;-1.5454;-0.6596;1.771
19.125000;-0.7840;-1.7199;-0.4011;1.932
19.136000;-0.9405;-1.8356;-0.6591;2.165
19.144000;-0.9865;-1.8355;-1.1786;2.394
19.154000;-0.9112;-1.6718;-1.7512;2.587
19.164000;-0.7829;-1.4237;-2.2764;2.797
19.175000;-0.6320;-1.1638;-2.4603;2.794
19.226000;-0.4372;-0.9251;-2.3449;2.558
19.228000;-0.1653;-0.6903;-2.1960;2.308
19.230000;0.2741;-0.0855;-1.9349;1.956
19.230000;0.3155;0.2328;-2.0312;2.069
19.232000;0.3586;0.5432;-2.2361;2.329
19.237000;0.4284;0.7974;-2.4631;2.624
19.244000;0.5953;0.9853;-2.6900;2.926
19.254000;0.7556;1.1636;-2.5912;2.939
19.264000;0.8294;1.2665;-2.2958;2.750
19.275000;0.7875;1.2321;-1.7224;2.259
19.320000;0.6008;1.0603;-0.9182;1.526
19.322000;0.2908;0.8031;0.0142;0.854
19.323000;0.0285;0.5737;0.8953;1.064
19.324000;-0.0679;0.4531;1.5003;1.569
19.325000;-0.0227;0.4908;1.8133;1.879
19.335000;0.0836;0.5760;1.9634;2.048
19.345000;0.2423;0.7028;1.9585;2.095
19.355000;0.3643;0.8247;1.7506;1.969
19.364000;0.5087;1.0421;1.3945;1.814
19.375000;0.4431;1.2770;1.3206;1.890
19.438000;0.1776;1.5369;1.5311;2.177
19.439000;0.0412;1.6501;1.4429;2.192
19.440000;0.0888;1.4972;1.3615;2.026
19.441000;0.3503;1.2012;1.6647;2.083
19.442000;0.7434;1.0354;2.1830;2.528
19.443000;1.0497;1.0291;2.5414;2.936
19.445000;1.2253;0.9913;2.7948;3.209
19.455000;1.3153;0.6332;3.4041;3.704
19.464000;1.1331;-0.0665;4.2584;4.407
19.475000;0.7367;-0.7535;4.8289;4.943
19.485000;0.3174;-1.2342;4.9059;5.069
19.525000;0.1111;-1.4754;4.5900;4.823
19.528000;0.1840;-1.4785;3.9317;4.205
19.530000;0.4617;-1.2635;3.0584;3.341
19.531000;0.9208;-0.4123;0.7882;1.280
19.537000;0.9367;-0.0665;-0.4843;1.057
19.544000;0.8613;0.1216;-1.6991;1.909
19.554000;0.6948;0.1594;-2.5639;2.661
19.564000;0.4437;0.0940;-3.0227;3.057
19.577000;0.0837;-0.0397;-3.0801;3.082
19.651000;-0.3023;-0.2238;-2.7395;2.765
19.653000;-0.6335;-0.4302;-2.2955;2.420
19.655000;-0.9276;-0.6531;-1.8359;2.158
19.656000;-1.2140;-0.7974;-1.5342;2.113
19.658000;-1.4941;-0.9607;-1.3285;2.218
19.659000;-1.6733;-1.0586;-0.9247;2.185
19.660000;-1.6989;-1.0201;-0.6714;2.092
19.660000;-1.5751;-0.8831;-0.7640;1.961
19.664000;-1.3748;-0.6492;-1.2524;1.970
19.675000;-1.1640;-0.3914;-1.8346;2.208
19.691000;-0.9164;-0.1404;-2.4041;2.577
19.695000;-0.6688;0.0892;-2.7483;2.830
19.740000;-0.4106;0.3001;-2.8380;2.883
19.742000;-0.1177;0.4706;-2.8217;2.863
19.744000;0.1047;0.6644;-2.7112;2.793
19.745000;0.1965;0.8387;-2.4679;2.614
19.747000;0.2247;0.9731;-2.1405;2.362
19.754000;0.2252;1.0010;-1.7424;2.022
19.764000;0.2166;0.9940;-1.3636;1.701
19.775000;0.1676;0.9924;-1.0021;1.420
19.784000;0.0712;1.0547;-0.6159;1.223
19.824000;-0.1329;1.0929;-0.1522;1.111
19.825000;-0.4004;1.0972;0.1837;1.182
19.826000;-0.5892;1.0529;0.3442;1.255
19.827000;-0.6786;0.8735;0.3664;1.165
19.835000;-0.7830;0.5834;0.4156;1.061
19.844000;-0.9493;0.2605;0.7908;1.263
19.858000;-1.2481;-0.0456;1.0646;1.641
19.864000;-1.5035;-0.2355;2.0575;2.559
19.909000;-1.4926;0.0508;2.5570;2.961
19.911000;-0.9547;0.6219;2.5705;2.812
19.912000;0.0260;1.2527;2.1949;2.527
19.913000;1.0732;1.7929;2.0622;2.936
19.915000;1.7587;2.4608;2.0728;3.667
19.924000;1.9366;2.8121;2.0197;3.967
19.935000;2.0131;2.6363;1.9363;3.841
19.944000;2.0694;1.8647;2.4811;3.730
19.957000;1.8367;0.8445;3.1389;3.733
19.966000;1.2594;-0.1374;3.9493;4.148
20.024000;0.6710;-0.7074;4.5730;4.676
20.027000;0.2262;-1.0053;4.8934;5.001
20.028000;0.0884;-1.0157;4.1194;4.244
20.030000;0.0308;-0.8354;2.5073;2.643
20.032000;-0.1706;-0.5633;0.9110;1.085
20.032000;-0.4519;-0.3487;-0.3515;0.670
20.034000;-0.6391;-0.2615;-1.3019;1.474
20.044000;-0.5617;-0.2944;-2.0912;2.185
20.058000;-0.2825;-0.4909;-2.5204;2.583
20.064000;-0.0421;-0.8154;-2.4711;2.602
20.111000;0.0221;-1.1787;-2.1739;2.473
20.113000;-0.0677;-1.4291;-1.6687;2.198
20.114000;-0.2661;-1.6564;-1.0793;1.995
20.115000;-0.4919;-1.8821;-0.6048;2.037
20.116000;-0.7195;-2.0708;-0.3582;2.221
20.124000;-0.8191;-2.1357;-0.4519;2.332
20.137000;-0.6581;-2.0437;-0.8370;2.304
20.144000;-0.2853;-1.7204;-1.3977;2.235
20.155000;0.1126;-1.2155;-1.9234;2.278
20.164000;0.4650;-0.7645;-2.3027;2.470
20.175000;0.7120;-0.4501;-2.5344;2.671
20.185000;0.8197;-0.2488;-2.6881;2.821
20.251000;0.8869;-0.0206;-2.6920;2.834
20.253000;0.8881;0.3900;-2.4056;2.594
20.255000;0.9097;0.5595;-2.3116;2.546
20.257000;0.9274;0.7928;-2.2385;2.549
20.260000;0.8944;1.0453;-2.1977;2.593
20.261000;0.8091;1.2096;-2.1541;2.600
20.262000;0.6467;1.2997;-2.0967;2.550
20.264000;0.3461;1.3249;-1.8278;2.284
20.274000;0.0104;1.2531;-1.2551;1.774
20.284000;-0.2330;1.0915;-0.5151;1.229
20.295000;-0.2776;0.8885;0.0663;0.933
20.344000;-0.1565;0.7718;0.5581;0.965
20.345000;-0.0240;0.7408;1.0999;1.326
20.347000;0.0478;0.7933;1.8599;2.023
20.347000;0.0914;0.9729;2.9127;3.072
20.349000;0.1971;1.4616;3.7663;4.045
20.356000;0.3975;1.9418;4.0395;4.500
20.364000;0.8938;2.1886;3.4838;4.210
20.379000;1.2782;2.0268;2.7069;3.615
20.384000;1.2297;1.6266;2.1947;2.996
20.431000;0.8472;1.0181;1.9439;2.352
20.433000;0.4862;0.3403;2.0067;2.093
20.434000;0.1965;-0.4419;2.5190;2.565
20.436000;-0.1638;-1.2231;3.5195;3.730
20.438000;-0.5811;-1.8712;4.4647;4.876
20.444000;-0.8317;-2.2918;5.0704;5.626
20.460000;-0.7692;-2.3619;5.2431;5.802
20.464000;-0.3205;-2.1130;4.6533;5.121
20.509000;0.2118;-1.6884;3.3124;3.724
20.511000;0.5663;-1.1510;1.5240;1.992
20.512000;0.6894;-0.6850;-0.2686;1.008
20.513000;0.7575;-0.4358;-1.7056;1.916
20.515000;0.7129;-0.3992;-2.5646;2.692
20.525000;0.5442;-0.4675;-2.8842;2.972
20.535000;-0.0668;-0.5151;-1.8411;1.913
20.544000;-0.2398;-0.5167;-0.9895;1.142
20.559000;-0.2612;-0.4859;-0.3828;0.671
20.564000;-0.3134;-0.4411;-0.1630;0.565
20.631000;-0.4618;-0.3324;-0.2825;0.635
20.633000;-0.5711;-0.1831;-0.7856;0.988
20.634000;-0.6267;-0.0904;-1.5291;1.655
20.636000;-0.6753;-0.0472;-2.3379;2.434
20.637000;-0.6781;-0.0430;-3.0754;3.150
20.639000;-0.6484;0.0167;-3.5608;3.619
20.640000;-0.5382;0.1409;-3.6820;3.724
20.645000;-0.2884;0.2950;-3.3199;3.345
20.660000;-0.0023;0.4548;-2.7818;2.819
20.665000;0.2173;0.6059;-2.2380;2.329
20.709000;0.3626;0.7270;-1.8795;2.048
20.711000;0.3756;0.8455;-1.6808;1.919
20.712000;0.3347;0.9723;-1.4978;1.817
20.713000;0.2742;1.0284;-1.3566;1.724
20.715000;0.1471;1.0668;-1.2285;1.634
20.724000;-0.2529;1.0458;-0.9938;1.465
20.734000;-0.8319;0.9661;-0.6339;1.424
20.744000;-1.3035;0.8621;-0.3049;1.592
20.760000;-1.4943;0.7238;-0.3418;1.695
20.764000;-1.3846;0.6760;-0.4445;1.604
20.835000;-1.2344;0.6869;-0.1999;1.427
20.836000;-1.0629;0.6801;0.4025;1.324
20.837000;-0.8132;0.6792;0.9941;1.453
20.839000;-0.5936;0.8151;1.6291;1.916
20.840000;-0.3564;1.0571;1.9238;2.224
20.841000;0.1348;1.3951;1.7145;2.214
20.842000;0.8672;1.7319;1.5028;2.452
20.844000;1.4284;1.9033;1.8488;3.013
20.856000;1.7440;2.0217;2.4829;3.646
20.864000;1.2319;1.1957;4.5405;4.854
20.874000;0.8352;0.2465;5.5934;5.661
20.884000;0.2991;-0.7978;6.0746;6.134
20.894000;-0.5192;-1.6011;6.3112;6.532
20.956000;-1.2771;-1.9466;6.0028;6.439
20.958000;-1.5624;-1.8937;4.9842;5.556
20.959000;-1.2719;-1.3901;3.3494;3.843
20.961000;-0.7573;-0.6403;1.6522;1.927
20.962000;-0.4269;0.0179;0.4014;0.586
20.962000;-0.2874;0.3709;-0.7233;0.862
20.964000;-0.2001;0.4700;-1.8744;1.943
20.974000;-0.1302;0.3627;-2.8529;2.879
20.985000;-0.0730;0.1029;-3.3836;3.386
20.994000;-0.1003;-0.3212;-3.2445;3.262
21.044000;-0.2643;-0.8453;-2.6403;2.785
21.046000;-0.4718;-1.2530;-1.9777;2.388
21.047000;-0.6515;-1.4597;-1.3857;2.116
21.048000;-0.8149;-1.6759;-0.9725;2.102
21.049000;-0.8611;-1.8225;-0.9792;2.241
21.057000;-0.8127;-1.8655;-1.3324;2.432
21.065000;-0.6900;-1.7812;-1.8103;2.632
21.076000;-0.5168;-1.6153;-2.3809;2.923
21.084000;-0.3857;-1.4746;-2.7054;3.105
21.129000;-0.2667;-1.3204;-2.9423;3.236
21.132000;-0.1961;-1.1160;-3.0729;3.275
21.133000;-0.1854;-0.8899;-2.9994;3.134
21.135000;-0.1488;-0.6028;-2.7754;2.844
21.137000;0.0146;-0.2819;-2.5297;2.545
21.145000;0.2443;0.0479;-2.3060;2.319
21.163000;0.4317;0.4048;-2.1203;2.201
21.167000;0.7321;0.8173;-2.0648;2.338
21.215000;0.9720;1.1846;-1.9864;2.509
21.217000;0.6924;1.4066;-0.9124;1.814
21.218000;0.1981;1.3407;-0.0775;1.357
21.219000;-0.2353;1.2165;0.7567;1.452
21.220000;-0.4673;0.9537;1.2396;1.632
21.225000;-0.4892;0.7329;1.4233;1.674
21.234000;-0.3936;0.6243;1.5816;1.745
21.244000;-0.0789;0.6800;1.7257;1.857
21.261000;0.2922;0.8957;2.0614;2.267
21.264000;0.5904;1.2156;2.6799;3.001
21.320000;0.8317;1.6546;3.4001;3.872
21.322000;1.0834;2.2078;3.4215;4.214
21.324000;1.4617;2.4613;2.9451;4.107
21.325000;1.8616;2.0766;2.7721;3.932
21.325000;1.8823;1.2590;3.2144;3.932
21.326000;1.4357;0.5794;3.5114;3.838
21.334000;1.0329;0.1649;3.5343;3.686
21.344000;0.8960;-0.2177;3.6708;3.785
21.360000;0.7884;-0.7461;4.1159;4.257
21.364000;0.4505;-1.3647;4.2573;4.493
21.408000;-0.0712;-1.9383;3.8851;4.342
21.410000;-0.4422;-2.2850;3.4332;4.148
21.411000;-0.4653;-2.4048;3.0928;3.945
21.413000;-0.2343;-2.2578;2.7203;3.543
21.415000;0.0223;-1.8785;2.0703;2.796
21.424000;0.2056;-1.3574;0.9714;1.682
21.434000;0.3258;-0.9261;-0.4602;1.084
21.444000;0.3451;-0.6872;-1.7191;1.883
21.459000;0.1990;-0.5185;-2.5608;2.620
21.464000;-0.0678;-0.3615;-3.1597;3.181
21.520000;-0.2893;-0.1938;-3.4153;3.433
21.522000;-0.3933;-0.0705;-3.3155;3.339
21.523000;-0.3579;-0.0343;-2.8069;2.830
21.524000;-0.3226;-0.1077;-2.1904;2.217
21.525000;-0.4701;-0.2219;-1.5757;1.659
21.526000;-0.9003;-0.4494;-0.9229;1.365
21.534000;-0.9189;-0.3992;-1.0366;1.442
21.544000;-0.7754;-0.2635;-1.4603;1.674
21.560000;-0.6112;-0.0604;-1.9958;2.088
21.564000;-0.4536;0.1345;-2.2993;2.348
21.610000;-0.2029;0.3102;-2.3823;2.411
21.612000;0.1262;0.5157;-2.5572;2.612
21.613000;0.3729;0.6777;-2.6185;2.730
21.614000;0.5144;0.8175;-2.4916;2.672
21.615000;0.5894;0.9276;-2.3959;2.636
21.624000;0.5485;0.9476;-2.2339;2.488
21.634000;0.4657;0.9604;-1.8389;2.126
21.645000;0.3660;0.9691;-1.2544;1.627
21.662000;0.2518;1.0583;-0.6920;1.289
21.665000;0.0423;1.2297;-0.1582;1.241
21.742000;-0.2015;1.4160;0.1475;1.438
21.743000;-0.3553;1.6007;-0.0150;1.640
21.744000;-0.3630;1.7216;-0.4636;1.819
21.745000;-0.1937;1.7127;-0.6349;1.837
21.746000;-0.0163;1.6164;-0.1988;1.629
21.747000;-0.0235;1.3952;0.7026;1.562
21.748000;-0.0847;1.0743;1.6027;1.931
21.749000;-0.2699;0.6970;2.2278;2.350
21.755000;-0.5567;0.6128;2.8449;2.963
21.764000;-0.6951;0.8673;2.8408;3.050
21.780000;-0.2455;1.3752;2.0810;2.506
21.784000;0.5832;1.8674;1.4566;2.439
21.830000;1.3528;2.1705;1.2212;2.834
21.832000;1.6974;2.3975;1.4371;3.270
21.833000;1.5942;2.0815;2.5535;3.660
21.834000;1.2745;1.1103;4.1929;4.521
21.836000;0.7326;-0.1066;5.4165;5.467
21.844000;-0.1780;-1.2504;6.2468;6.373
21.855000;-1.1768;-2.0620;6.4521;6.875
21.864000;-1.6350;-2.1390;3.7773;4.639
21.915000;-1.0452;-1.3601;1.6693;2.393
21.917000;-0.5157;-0.5215;0.0865;0.739
21.919000;-0.2136;0.1191;-1.1547;1.180
21.920000;0.0153;0.5651;-2.3553;2.422
21.921000;0.2392;0.6741;-3.1497;3.230
21.929000;0.3771;0.3089;-3.3514;3.387
21.935000;0.3567;-0.4028;-3.0792;3.126
21.944000;0.1353;-1.0980;-2.6017;2.827
21.954000;-0.2620;-1.6684;-2.0248;2.637
21.964000;-0.7092;-2.1643;-1.3789;2.662
22.016000;-1.1112;-2.5758;-0.9685;2.968
22.017000;-1.3801;-2.8773;-0.9620;3.333
22.018000;-1.4784;-2.9298;-1.3631;3.554
22.019000;-1.3479;-2.6678;-2.1243;3.667
22.021000;-0.9855;-2.2223;-2.8790;3.768
22.025000;-0.5446;-1.7544;-3.4879;3.942
22.034000;-0.1160;-1.3368;-3.7473;3.980
22.044000;0.1685;-0.9680;-3.6701;3.799
22.054000;0.2953;-0.6189;-3.3297;3.400
22.064000;0.3486;-0.2894;-2.9377;2.972
22.113000;0.4929;0.0314;-2.5970;2.644
22.115000;0.6768;0.3704;-2.3483;2.472
22.117000;0.7686;0.7079;-2.2326;2.465
22.118000;0.6622;0.9761;-2.0677;2.380
22.119000;0.4474;1.1734;-1.7184;2.128
22.124000;0.2704;1.3926;-1.2482;1.890
22.134000;0.1188;1.5781;-0.6121;1.697
22.146000;-0.0332;1.7696;0.0053;1.770
22.154000;-0.1652;1.9477;0.6520;2.061
22.165000;-0.1189;2.0471;1.1356;2.344
22.219000;0.0556;2.0177;1.3442;2.425
22.221000;0.2674;1.9527;1.5591;2.513
22.223000;0.6072;1.7536;2.9932;3.522
22.225000;0.5542;1.6348;4.0274;4.382
22.226000;0.3973;1.6200;4.9309;5.205
22.229000;0.4129;1.6696;5.1339;5.414
22.234000;0.8779;1.6694;4.8773;5.229
22.244000;1.5979;1.5405;4.8007;5.289
22.254000;2.1290;1.4539;4.9335;5.566
22.264000;2.1891;1.3264;4.5697;5.238
22.313000;1.8098;0.8515;3.9980;4.470
22.316000;1.1771;0.0066;3.5138;3.706
22.317000;0.4261;-0.9764;2.9866;3.171
22.319000;-0.3244;-1.9388;2.4032;3.105
22.321000;-0.8066;-2.7051;1.8360;3.367
22.325000;-1.0021;-3.0876;1.4949;3.574
22.334000;-0.9202;-3.0189;1.2473;3.394
22.344000;-0.5864;-2.4992;1.0000;2.755
22.354000;-0.0185;-1.7477;0.4517;1.805
22.364000;0.6942;-1.0185;-0.4580;1.315
22.428000;1.2965;-0.5249;-1.3333;1.932
22.431000;1.6117;-0.2843;-2.0128;2.594
22.433000;1.5756;-0.2557;-2.5932;3.045
22.435000;1.2381;-0.2282;-2.8291;3.097
22.437000;0.7693;-0.2837;-2.5456;2.674
22.439000;0.3773;-0.4558;-1.8958;1.986
22.441000;0.1016;-0.6092;-1.1859;1.337
22.445000;-0.0482;-0.6947;-0.5735;0.902
22.454000;-0.0492;-0.6086;-0.3409;0.699
22.464000;0.0721;-0.3691;-0.5138;0.637
22.479000;0.2267;-0.1217;-0.8654;0.903
22.484000;0.3213;0.0209;-1.3756;1.413
22.537000;0.3485;0.0750;-1.9204;1.953
22.539000;0.2292;0.1085;-2.4354;2.449
22.540000;0.0247;0.0791;-2.8731;2.874
22.541000;-0.0590;0.1712;-3.2180;3.223
22.543000;0.0207;0.2941;-3.2048;3.218
22.545000;0.0483;0.4697;-3.0135;3.050
22.555000;0.0432;0.6958;-2.5980;2.690
22.564000;0.0449;0.9518;-2.0531;2.263
22.578000;0.0320;1.1738;-1.5935;1.979
22.584000;-0.0825;1.2812;-1.2622;1.800
22.626000;-0.3422;1.2782;-0.7870;1.540
22.627000;-0.5974;1.2952;-0.2082;1.441
22.628000;-0.7412;1.4078;0.1281;1.596
22.629000;-0.6945;1.5195;0.1887;1.681
22.634000;-0.5055;1.5626;-0.0359;1.643
22.645000;-0.3842;1.5719;-0.0024;1.618
22.654000;-0.3636;1.4984;0.3045;1.572
22.664000;-0.4735;1.3078;0.7885;1.599
22.709000;-0.6998;1.0462;1.8148;2.209
22.711000;-0.9809;0.8481;2.8808;3.159
22.711000;-1.1834;0.8810;3.2320;3.553
22.713000;-0.8539;1.2891;2.4214;2.873
22.715000;0.0602;1.8004;1.3477;2.250
22.725000;1.0769;2.1240;1.3845;2.755
22.734000;1.8603;2.0622;2.4296;3.690
22.745000;1.9466;1.4650;4.0568;4.732
22.754000;1.6042;0.7044;5.5730;5.842
22.765000;1.2083;-0.1027;6.6720;6.781
22.825000;0.7659;-0.9036;7.0532;7.152
22.828000;0.4472;-1.4243;6.1764;6.354
22.830000;0.3050;-1.5011;3.9847;4.269
22.831000;0.2221;-1.2838;1.5349;2.013
22.832000;0.0292;-0.9989;-0.2943;1.042
22.833000;-0.2484;-0.7856;-1.4148;1.637
22.834000;-0.4728;-0.7213;-2.1877;2.352
22.844000;-0.5715;-0.7770;-2.7881;2.950
22.854000;-0.5271;-1.4657;-2.9843;3.366
22.866000;-0.5740;-1.9267;-2.6596;3.334
22.917000;-0.7914;-2.2638;-2.2974;3.321
22.919000;-1.1865;-2.5509;-1.9832;3.442
22.921000;-1.5244;-2.7065;-1.7655;3.573
22.923000;-1.6807;-2.8039;-1.6430;3.659
22.925000;-1.6746;-2.8352;-1.7047;3.708
22.927000;-1.4777;-2.6131;-1.9665;3.589
22.934000;-1.0538;-2.1366;-2.3939;3.377
22.945000;-0.5347;-1.6451;-2.8303;3.317
22.954000;-0.0229;-1.2331;-3.0122;3.255
22.964000;0.4077;-0.8922;-2.8370;3.002
23.022000;0.6956;-0.6497;-2.3876;2.570
23.023000;0.8179;-0.4281;-1.7814;2.006
23.025000;0.9359;-0.1698;-1.2965;1.608
23.027000;1.0700;0.1596;-1.0227;1.489
23.029000;1.2123;0.5191;-1.1643;1.759
23.030000;1.2590;0.8244;-1.6770;2.253
23.036000;1.1093;1.1031;-2.2241;2.719
23.045000;0.8334;1.2697;-2.5048;2.929
23.056000;0.6369;1.2860;-2.4991;2.882
23.066000;0.4320;1.1953;-2.0021;2.371
23.116000;0.1963;0.9807;-1.2071;1.568
23.117000;-0.0667;0.8115;-0.3527;0.887
23.119000;-0.2408;0.6230;0.4201;0.789
23.119000;-0.2227;0.4601;1.2135;1.317
23.121000;-0.0948;0.3165;2.0819;2.108
23.127000;-0.0303;0.1573;2.8004;2.805
23.134000;-0.2199;0.1327;3.2894;3.299
23.145000;-0.5414;0.3308;3.6815;3.736
23.154000;-0.7044;0.8035;3.5331;3.691
23.165000;-0.4568;1.3186;2.6088;2.959
23.180000;0.5080;1.8053;1.4079;2.345
23.185000;1.3168;1.5063;1.8866;2.750
23.255000;1.8784;0.8334;2.5162;3.249
23.257000;1.6000;-0.0829;3.6753;4.009
23.259000;0.9008;-1.0292;5.1519;5.330
23.260000;0.1770;-1.9376;6.0869;6.390
23.261000;-0.5256;-2.5601;6.9835;7.457
23.263000;-0.9128;-2.6320;7.2039;7.724
23.265000;-0.6601;-2.2229;6.5960;6.992
23.266000;0.0730;-1.4214;5.1768;5.369
23.276000;0.7299;-0.4959;2.8248;2.959
23.285000;0.9950;0.2844;0.4087;1.113
23.297000;0.9754;0.7231;-1.5735;1.987
23.304000;0.7654;0.7330;-2.6346;2.840
23.347000;0.4071;0.4768;-2.7991;2.868
23.349000;0.1510;0.2692;-2.4628;2.482
23.350000;0.1438;0.1586;-2.1314;2.142
23.351000;0.1647;0.1052;-1.7721;1.783
23.354000;0.0757;-0.0234;-1.5794;1.581
23.364000;-0.1597;-0.2151;-1.6330;1.655
23.380000;-0.5161;-0.3402;-1.9858;2.080
23.384000;-0.8023;-0.2566;-2.4918;2.630
23.431000;-0.9028;-0.0454;-2.7557;2.900
23.433000;-0.8053;0.0262;-2.7510;2.867
23.434000;-0.5539;0.0894;-2.6522;2.711
23.435000;-0.2729;0.1282;-2.4538;2.472
23.436000;-0.0536;0.1586;-2.3668;2.373
23.444000;0.1212;0.1605;-2.0448;2.055
23.454000;0.2578;0.1372;-1.5818;1.608
23.464000;0.4759;0.1094;-1.5286;1.605
23.480000;0.6235;0.5513;-2.1550;2.310
23.484000;0.6443;0.5007;-2.1341;2.285
23.555000;0.5645;0.7552;-2.4254;2.602
23.557000;0.4161;0.8560;-2.6462;2.812
23.559000;0.0875;1.0536;-2.2262;2.465
23.560000;-0.0823;1.1252;-1.6668;2.013
23.561000;-0.2374;1.1083;-1.0961;1.577
23.562000;-0.4309;0.9668;-0.5328;1.185
23.563000;-0.6403;0.6086;-0.0921;0.888
23.564000;-0.7294;0.2098;0.2685;0.805
23.576000;-0.6838;-0.0695;0.9390;1.164
23.584000;-0.5758;-0.0423;1.9013;1.987
23.598000;-0.4667;0.2951;2.8731;2.926
23.604000;-0.2891;0.7710;3.3051;3.406
23.650000;0.0319;1.2357;2.8252;3.084
23.652000;0.6319;1.7168;1.6562;2.468
23.652000;1.3999;2.1800;0.4138;2.624
23.653000;1.9422;2.4260;0.1010;3.109
23.656000;2.0372;2.1158;0.9203;3.078
23.665000;1.7750;1.1074;3.1071;3.746
23.682000;1.2314;-0.0511;5.5424;5.678
23.686000;0.4822;-0.9163;7.0575;7.133
23.734000;-0.4413;-1.4837;7.6820;7.836
23.736000;-1.0835;-1.7143;6.8206;7.116
23.739000;-1.2693;-1.5931;4.8619;5.271
23.741000;-1.2998;-1.0995;2.5992;3.107
23.742000;-1.5652;-0.4864;0.6681;1.770
23.746000;-1.8431;0.0651;-0.9438;2.072
23.755000;-1.8414;0.3379;-2.3147;2.977
23.764000;-1.5495;0.1153;-3.1654;3.526
23.783000;-1.0236;-0.3064;-3.2874;3.457
23.785000;-0.5813;-0.8189;-2.8828;3.053
23.857000;-0.3718;-1.1006;-2.3066;2.583
23.859000;-0.3573;-1.1440;-1.9080;2.253
23.860000;-0.5281;-1.1564;-1.6609;2.092
23.861000;-0.6829;-1.1979;-1.5318;2.061
23.863000;-0.6300;-1.1779;-1.6169;2.097
23.864000;-0.4542;-1.0974;-2.5151;2.781
23.865000;-0.0757;-0.8221;-3.1039;3.212
23.867000;0.0729;-0.6789;-3.4985;3.565
23.876000;0.1937;-0.5148;-3.7228;3.763
23.884000;0.2574;-0.3888;-3.6321;3.662
23.899000;0.3169;-0.2953;-3.1202;3.150
23.904000;0.4716;-0.1724;-2.3119;2.366
23.950000;0.6989;0.0829;-1.5890;1.738
23.951000;0.8968;0.4283;-0.9656;1.386
23.952000;0.9860;0.7923;-0.6808;1.436
23.953000;0.8873;1.1092;-0.8335;1.647
23.954000;0.5907;1.3227;-1.0441;1.786
23.964000;0.1677;1.4687;-0.9951;1.782
23.975000;-0.3089;1.5213;-0.6261;1.674
23.986000;-0.7209;1.5011;0.0797;1.667
24.037000;-0.8782;1.1878;0.6768;1.625
24.039000;-0.8333;0.5917;1.6679;1.956
24.045000;-0.7670;-0.0714;2.9202;3.020
24.046000;-0.7618;-0.4761;4.0441;4.143
24.049000;-0.8430;-0.4653;4.8791;4.973
24.051000;-0.8590;-0.0404;5.1512;5.223
24.054000;-0.7199;0.6762;4.8634;4.963
24.064000;-0.3787;1.3755;4.2055;4.441
24.075000;0.2037;1.7907;3.1387;3.619
24.085000;0.8105;2.0084;2.5080;3.314
24.147000;1.1836;1.9800;2.4220;3.345
24.148000;1.2662;1.4628;2.4649;3.133
24.150000;0.9303;0.6279;2.7980;3.015
24.151000;0.2688;-0.2985;3.2382;3.263
24.153000;-0.3124;-1.1873;3.3189;3.539
24.154000;-0.6797;-1.8542;3.1621;3.728
24.156000;-0.6588;-2.1221;2.8683;3.628
24.164000;-0.1568;-1.9822;2.6914;3.346
24.182000;0.6354;-1.5390;2.3445;2.876
24.185000;1.7101;-0.4568;0.2378;1.786
24.236000;1.8103;-0.2245;-1.1554;2.159
24.238000;1.6767;-0.1976;-2.2398;2.805
24.240000;1.3174;-0.3138;-2.9411;3.238
24.244000;0.9845;-0.4435;-3.4660;3.630
24.246000;0.8303;-0.4905;-3.6940;3.818
24.248000;0.7720;-0.5721;-3.5261;3.655
24.254000;0.6708;-0.6418;-2.8042;2.954
24.265000;0.5043;-0.6472;-2.0268;2.187
24.274000;0.3688;-0.5906;-1.2802;1.457
24.317000;0.2735;-0.4762;-0.6997;0.889
24.319000;0.1259;-0.2781;-0.4305;0.528
24.320000;0.0158;-0.0102;-0.8501;0.850
24.321000;0.0198;0.3681;-1.8147;1.852
24.324000;0.1144;0.6108;-3.0881;3.150
24.334000;0.1955;0.6231;-3.8368;3.892
24.344000;0.1172;0.5589;-4.2164;4.255
24.354000;-0.1576;0.4443;-4.2399;4.266
24.364000;-0.6048;0.2789;-3.9388;3.995
24.374000;-1.0245;0.1068;-3.2037;3.365
24.384000;-1.2770;0.0694;-2.3251;2.654
24.434000;-1.3479;0.2360;-1.6987;2.181
24.435000;-1.3545;0.4539;-1.3987;1.999
24.437000;-1.4327;0.7080;-1.1784;1.986
24.438000;-1.5043;0.9223;-1.0577;2.057
24.439000;-1.3182;1.2275;-1.3135;2.229
24.445000;-0.7723;1.5873;-1.8435;2.552
24.454000;-0.0884;1.7739;-2.0727;2.730
24.464000;0.3324;1.8816;-1.7287;2.577
24.474000;-0.0678;1.6365;-0.2743;1.661
24.484000;-0.9947;1.0867;2.2073;2.654
24.510000;-1.7621;0.4126;4.6324;4.973
24.511000;-2.0129;0.0997;5.9405;6.273
24.514000;0.2003;0.9459;3.2554;3.396
24.524000;1.5960;1.1472;2.0764;2.859
24.534000;2.8844;0.9524;1.5196;3.396
24.544000;3.7209;0.2352;2.4671;4.471
24.554000;3.8496;-0.9923;4.6993;6.155
24.564000;3.3697;-2.0737;7.1695;8.189
24.574000;2.4510;-3.2039;9.4689;10.292
24.584000;0.7903;-4.2462;10.0587;10.947
24.635000;-0.7841;-4.6453;8.6184;9.822
24.637000;-1.8732;-4.3471;5.5666;7.307
24.639000;-2.6394;-3.4990;2.1452;4.880
24.640000;-3.0822;-2.2159;-0.6010;3.843
24.641000;-2.9907;-0.9931;-2.6642;4.127
24.646000;-1.9929;-0.0916;-3.7777;4.272
24.654000;-0.4079;0.3484;-3.6201;3.660
24.664000;0.8917;0.3951;-2.8176;2.982
24.674000;1.4123;0.2738;-1.6680;2.203
24.685000;1.3633;0.1676;-0.5711;1.488
24.737000;0.9614;-0.0778;0.1876;0.983
24.739000;0.4879;-0.3820;0.6866;0.925
24.740000;0.2788;-0.5310;0.4253;0.735
24.740000;0.1469;-0.5092;-0.5232;0.745
24.741000;-0.0463;-0.4618;-1.1883;1.276
24.748000;-0.2007;-0.3973;-1.9239;1.975
24.764000;-0.5065;-0.4481;-2.8136;2.894
24.775000;-0.6587;-0.3894;-3.0197;3.115
24.784000;-0.6596;-0.3263;-3.0626;3.150
24.860000;-0.5146;-0.2841;-3.0106;3.067
24.862000;-0.2855;-0.2356;-2.9359;2.959
24.864000;-0.1411;-0.2404;-2.7119;2.726
24.865000;-0.0963;-0.2203;-2.2502;2.263
24.867000;-0.1806;-0.1309;-1.8188;1.832
24.868000;-0.5104;0.3454;-1.2726;1.414
24.868000;-0.6061;0.5679;-1.0686;1.353
24.869000;-0.6306;0.7241;-0.7804;1.237
24.874000;-0.6639;0.7194;-0.3603;1.043
24.884000;-0.5779;0.5857;0.1312;0.833
24.900000;-0.4542;0.3547;0.5969;0.830
24.904000;-0.2673;0.1661;1.3146;1.352
24.953000;-0.0217;0.1036;2.3523;2.355
24.955000;0.1943;0.2083;3.6975;3.708
24.956000;0.2326;0.4768;5.0645;5.092
24.957000;-0.0662;0.9369;6.2932;6.363
24.959000;-0.4533;1.4724;6.9891;7.157
24.964000;-0.4346;1.8907;6.1942;6.491
24.974000;0.0272;2.1317;4.1048;4.625
24.984000;0.5018;2.2908;2.2053;3.219
25.032000;0.6304;2.2896;1.2024;2.662
25.034000;0.2949;1.5472;0.2065;1.589
25.036000;0.0035;0.4760;0.6547;0.809
25.037000;-0.3578;-0.6645;2.2679;2.390
25.039000;-0.5871;-1.4854;3.5594;3.901
25.045000;-0.4738;-1.8168;4.3621;4.749
25.055000;0.0222;-1.8649;4.7997;5.149
25.064000;1.0019;-1.6783;5.2022;5.557
25.074000;2.0801;-1.3870;5.0656;5.649
25.085000;2.9356;-0.9505;3.8579;4.940
25.141000;3.2627;-0.4326;1.7080;3.708
25.145000;3.0881;-0.0308;-0.9058;3.218
25.146000;2.3406;-0.0066;-3.2016;3.966
25.147000;1.3840;-0.2704;-4.3955;4.616
25.149000;0.5286;-0.7736;-4.6589;4.752
25.150000;-0.0995;-1.2993;-4.1758;4.374
25.155000;-0.5301;-1.6561;-3.4065;3.825
25.165000;-0.8672;-1.7993;-2.5179;3.214
25.174000;-1.1486;-1.4744;-1.4179;2.346
25.184000;-0.9482;-0.9985;-1.3593;1.935
25.230000;-0.4262;-0.4584;-1.7657;1.873
25.232000;0.1687;-0.0243;-2.6079;2.613
25.233000;0.5593;0.1442;-3.6190;3.665
25.235000;0.5841;0.1068;-4.4202;4.460
25.237000;0.4064;0.0262;-4.7636;4.781
25.246000;0.2017;-0.0796;-4.7208;4.726
25.255000;0.0055;-0.1816;-4.3429;4.347
25.265000;-0.1382;-0.1634;-3.7159;3.722
25.274000;-0.2491;-0.0042;-3.0355;3.046
25.285000;-0.3765;0.1478;-2.4845;2.517
25.335000;-0.6418;0.2920;-1.8201;1.952
25.337000;-0.9519;0.5732;-1.0699;1.542
25.338000;-1.1433;0.9720;-0.3005;1.530
25.339000;-1.1101;1.3046;0.3491;1.748
25.339000;-0.7462;1.5945;0.8659;1.962
25.347000;-0.1690;1.9228;1.2247;2.286
25.354000;0.3481;2.2111;1.2433;2.560
25.364000;0.5642;2.2713;1.4541;2.755
25.374000;0.3757;1.9581;2.7427;3.391
25.385000;-0.0298;1.3537;4.4084;4.612
25.455000;-0.4412;0.5018;5.4351;5.476
25.458000;-0.9986;-0.3643;6.1607;6.252
25.459000;-1.7241;-0.7700;6.6066;6.871
25.461000;-2.2805;-0.6089;5.8892;6.345
25.463000;-2.0333;0.1899;4.0226;4.511
25.464000;-0.9328;1.2845;1.9638;2.525
25.466000;0.5178;2.3348;0.7672;2.512
25.467000;2.1362;2.8750;0.2273;3.589
25.474000;3.5194;2.3977;0.3835;4.276
25.484000;4.2641;1.2303;1.8091;4.793
25.534000;2.9418;-1.3626;5.5255;6.406
25.537000;2.8563;-1.3631;5.5256;6.368
25.539000;0.0007;-3.3263;4.8467;5.878
25.541000;-0.8857;-3.5823;2.9618;4.732
25.542000;-1.4165;-3.3287;0.5006;3.652
25.547000;-1.6693;-2.5585;-2.0238;3.664
25.555000;-1.6642;-1.7130;-4.3331;4.948
25.564000;-1.4944;-1.1594;-5.9210;6.216
25.574000;-1.1943;-0.9908;-6.5535;6.735
25.584000;-0.9464;-1.2595;-6.1215;6.321
25.659000;-0.8756;-1.7563;-4.8278;5.211
25.662000;-0.9656;-2.1362;-3.2883;4.038
25.664000;-1.0793;-2.3371;-1.8099;3.147
25.666000;-1.0014;-2.3124;-0.7706;2.635
25.668000;-0.6214;-1.9994;-0.2256;2.106
25.670000;-0.1170;-1.5136;-0.2868;1.545
25.673000;0.4021;-0.9582;-0.7497;1.281
25.675000;0.8385;-0.4908;-1.4398;1.737
25.676000;1.1099;-0.1487;-2.0906;2.372
25.684000;1.1425;0.0072;-2.3458;2.609
25.701000;0.8897;-0.0222;-2.2219;2.394
25.704000;0.4965;-0.2498;-1.8879;1.968
25.751000;0.0834;-0.4849;-1.6396;1.712
25.752000;-0.2116;-0.5839;-1.6606;1.773
25.754000;-0.2914;-0.3899;-1.9253;1.986
25.755000;-0.1453;0.0405;-2.1453;2.151
25.757000;0.1555;0.4048;-2.2767;2.318
25.764000;0.4617;0.7419;-2.1932;2.361
25.774000;0.5297;1.0384;-2.0202;2.332
25.784000;0.3909;1.3591;-1.8252;2.309
25.826000;0.0839;1.5631;-1.4296;2.120
25.828000;-0.1430;1.5794;-1.0996;1.930
25.829000;-0.2759;1.4874;-0.8163;1.719
25.830000;-0.4127;1.3248;-0.0304;1.388
25.834000;-0.5750;1.1109;1.2217;1.749
25.844000;-0.7012;0.5938;4.0350;4.138
25.854000;-0.6376;0.5022;4.8084;4.876
25.870000;-0.6849;0.5462;5.1879;5.261
25.874000;-0.8579;0.8358;4.9719;5.114
25.920000;-1.0057;1.1613;4.1701;4.444
25.922000;-0.9768;1.1886;3.2064;3.556
25.924000;-0.6730;1.0533;3.0776;3.322
25.924000;-0.0670;0.9080;3.5516;3.666
25.926000;0.6307;0.6702;3.8667;3.975
25.934000;0.9642;0.1610;4.2784;4.389
25.945000;0.8691;-0.5581;4.7107;4.823
25.954000;0.4810;-1.3257;4.9088;5.107
25.968000;0.1120;-1.9775;4.8724;5.260
25.975000;0.0477;-2.2910;4.3220;4.892
26.037000;0.3734;-2.2252;3.6218;4.267
26.039000;0.9420;-1.9576;2.8046;3.548
26.041000;1.4492;-1.5965;1.7938;2.805
26.042000;1.7526;-1.1542;0.5331;2.165
26.044000;1.8806;-0.9034;-0.8514;2.253
26.046000;1.9660;-0.8916;-1.9585;2.915
26.047000;1.8945;-0.9976;-2.7019;3.447
26.054000;1.6837;-1.0261;-3.1269;3.697
26.068000;1.3625;-0.9363;-3.2352;3.633
26.074000;1.0374;-0.7248;-2.7930;3.066
26.117000;0.8468;-0.5271;-1.9598;2.199
26.119000;0.8042;-0.4416;-1.1910;1.503
26.120000;0.7814;-0.4314;-0.7279;1.152
26.121000;0.7203;-0.3345;-0.6419;1.021
26.125000;0.7314;-0.1131;-1.0997;1.326
26.134000;0.8747;0.1756;-2.0158;2.204
26.144000;0.9237;0.4201;-2.9805;3.148
26.155000;0.8902;0.6443;-3.5627;3.728
26.171000;1.0228;0.8007;-4.1124;4.313
26.251000;1.1773;1.0354;-3.2392;3.599
26.253000;1.1956;0.8443;-2.7062;3.077
26.254000;1.0422;0.6906;-2.2167;2.545
26.256000;0.5908;0.5432;-1.7207;1.899
26.257000;0.0234;0.4374;-1.3388;1.409
26.260000;-0.4436;0.5358;-0.8989;1.137
26.263000;-0.6656;0.8880;-0.4741;1.207
26.265000;-0.6749;1.3050;-0.1522;1.477
26.266000;-0.5291;1.8322;0.1764;1.915
26.274000;-0.4056;2.2266;0.3808;2.295
26.288000;-0.4407;2.3250;0.4012;2.400
26.294000;-0.5782;2.0847;0.6694;2.265
26.337000;-0.6953;1.7829;1.3468;2.340
26.340000;-0.8633;1.5549;2.2061;2.834
26.341000;-0.8064;1.4835;2.9325;3.384
26.342000;-0.4849;1.4573;3.4661;3.791
26.344000;-0.4019;1.4015;4.2823;4.524
26.355000;-0.8429;1.4157;4.4680;4.762
26.368000;-1.1585;1.5799;3.2698;3.812
26.374000;-0.7862;1.8138;1.6741;2.591
26.419000;-0.2479;2.0372;1.1232;2.340
26.421000;0.0338;2.0473;1.6212;2.612
26.422000;0.1364;1.4590;2.6759;3.051
26.423000;0.2313;0.4289;4.1022;4.131
26.425000;0.1954;-0.5122;5.3385;5.367
26.434000;-0.3075;-1.4836;5.9110;6.102
26.444000;-1.0605;-2.2090;5.7537;6.254
26.454000;-1.6934;-2.6736;4.6739;5.645
26.468000;-1.8484;-2.7479;2.6761;4.258
26.475000;-1.8726;-2.5698;0.8595;3.294
26.536000;-1.9356;-2.3076;-0.3435;3.031
26.538000;-2.0651;-2.1712;-1.1711;3.217
26.539000;-2.0751;-2.3213;-2.1843;3.803
26.541000;-1.8610;-2.5533;-2.0694;3.777
26.542000;-1.5970;-2.7640;-1.7172;3.625
26.543000;-1.3246;-2.7408;-1.2550;3.293
26.545000;-1.1540;-2.5939;-0.7663;2.941
26.555000;-1.0623;-2.4393;-0.4807;2.704
26.569000;-1.0809;-2.3406;-0.2940;2.595
26.574000;-1.0131;-2.2360;-0.2480;2.467
26.620000;-0.9188;-2.0822;-0.2280;2.287
26.622000;-0.7752;-1.9045;-0.0486;2.057
26.623000;-0.4976;-1.6064;-0.0596;1.683
26.624000;-0.1137;-1.2036;-0.3537;1.260
26.626000;0.2107;-0.8195;-0.5760;1.024
26.634000;0.4194;-0.5158;-0.7510;1.003
26.644000;0.6039;-0.2511;-0.8858;1.101
26.655000;0.7574;-0.0809;-0.9200;1.194
26.670000;0.7987;0.0099;-0.8673;1.179
26.674000;0.8164;0.1292;-0.8647;1.196
26.740000;0.8366;0.3082;-1.1176;1.430
26.742000;0.8337;0.5483;-1.4338;1.747
26.744000;0.6401;0.7134;-1.4860;1.768
26.746000;0.3235;0.7238;-1.4637;1.665
26.747000;-0.0749;0.6389;-1.3345;1.481
26.749000;-0.4631;0.5367;-1.1105;1.317
26.750000;-0.7368;0.4125;-0.9267;1.254
26.754000;-0.8605;0.2863;-0.7014;1.146
26.764000;-0.8716;0.1974;-0.4273;0.991
26.774000;-0.6458;0.2023;-0.1877;0.702
26.785000;-0.2448;0.3515;-0.1540;0.455
26.794000;0.1374;0.5248;0.0419;0.544
26.837000;0.4445;0.6455;0.4816;0.920
26.839000;0.6497;0.7301;0.8482;1.294
26.840000;0.6895;0.7601;0.8758;1.349
26.841000;0.5657;0.6178;0.6871;1.083
26.845000;0.2629;0.5028;0.4465;0.722
26.855000;-0.2135;0.6246;0.7516;1.000
26.865000;-0.5055;0.8872;1.0925;1.495
26.875000;-0.0911;0.9418;1.3502;1.649
26.888000;1.0517;0.7776;1.9501;2.348
26.895000;2.3202;0.5403;2.6279;3.547
26.961000;2.9831;0.2575;2.9657;4.214
26.963000;2.8466;-0.1546;3.0146;4.149
26.965000;2.1253;-0.6368;2.7877;3.563
26.967000;1.3042;-1.2584;2.2720;2.906
26.970000;0.6177;-2.1377;1.1940;2.525
26.971000;0.0206;-3.3073;-0.1550;3.311
26.972000;-0.6954;-4.3179;-1.1293;4.517
26.974000;-1.3602;-4.7391;-1.0632;5.044
26.984000;-1.4389;-4.5580;0.0267;4.780
26.995000;-0.7530;-3.9473;1.9709;4.476
27.004000;0.3785;-3.0778;3.7251;4.847
27.055000;1.5464;-2.1606;5.0889;5.741
27.059000;2.5193;-1.4359;5.6272;6.330
27.060000;3.1750;-1.0466;4.8550;5.895
27.063000;3.2683;-0.8309;3.1921;4.643
27.065000;2.7070;-0.6540;1.7656;3.297
27.066000;1.7181;-0.5389;0.9834;2.052
27.074000;0.7230;-0.6544;0.3825;1.048
27.085000;-0.0311;-0.8553;-0.1660;0.872
27.094000;-0.5218;-0.9770;-0.6705;1.295
27.135000;-0.8501;-1.0435;-1.1597;1.777
27.136000;-0.8824;-0.9116;-1.3283;1.837
27.137000;-0.6605;-0.5821;-1.1431;1.443
27.139000;-0.3342;-0.3089;-0.7908;0.912
27.144000;-0.1339;-0.1382;-0.2778;0.338
27.154000;-0.1589;-0.0861;0.2734;0.328
27.165000;-0.4080;-0.1417;0.7856;0.896
27.175000;-1.1453;-0.6007;0.5124;1.391
27.185000;-1.3545;-0.6964;0.0442;1.524
27.194000;-1.2187;-0.5600;-0.3828;1.395
27.204000;-0.8481;-0.1479;-0.6986;1.109
27.280000;-0.4917;0.2605;-0.4377;0.708
27.283000;-0.2668;0.5375;0.5095;0.787
27.284000;-0.1646;0.5880;1.0989;1.257
27.286000;-0.1900;0.4282;1.2785;1.362
27.287000;-0.4268;0.2670;1.3470;1.438
27.289000;-0.6706;0.2126;0.9963;1.220
27.290000;-0.6827;0.3370;0.2307;0.795
27.290000;-0.3435;0.6322;-0.1396;0.733
27.294000;0.1787;0.8483;-0.2316;0.897
27.305000;0.6584;0.9419;-0.3310;1.196
27.320000;0.9499;1.0311;-0.3795;1.452
27.324000;1.0062;0.9623;0.0755;1.394
27.373000;0.8913;0.6661;0.7420;1.337
27.375000;0.5723;0.2094;1.5154;1.633
27.376000;0.1062;-0.1896;2.3702;2.380
27.377000;-0.2885;-0.6334;2.8523;2.936
27.379000;-0.3680;-0.8973;2.7706;2.935
27.385000;-0.1745;-0.8583;2.0789;2.256
27.394000;0.2556;-0.4765;0.8388;0.998
27.404000;0.8227;0.1564;-0.5810;1.019
27.453000;1.3497;0.8715;-2.0821;2.630
27.455000;1.6612;1.2709;-3.0069;3.663
27.456000;1.6351;1.2165;-3.0665;3.682
27.458000;1.4598;0.8322;-2.5361;3.042
27.460000;1.3636;0.5366;-2.1312;2.586
27.465000;1.1307;0.2745;-1.9713;2.289
27.476000;0.7214;0.0833;-2.1101;2.232
27.485000;0.3720;0.0263;-1.4148;1.463
27.495000;-0.0029;-0.2014;-0.8871;0.910
27.510000;-0.3443;-0.8475;-0.8427;1.244
27.592000;-0.5440;-1.1952;-1.2969;1.846
27.594000;-0.4903;-0.7520;-1.7748;1.989
27.596000;-0.3001;-0.0703;-1.6331;1.662
27.598000;0.0788;0.2661;-1.3768;1.404
27.600000;0.3584;0.0966;-0.7373;0.826
27.601000;0.3486;-0.1752;-0.0732;0.397
27.603000;0.0941;-0.4429;0.2591;0.522
27.604000;-0.2587;-0.5530;0.1124;0.621
27.605000;-0.5139;-0.4379;-0.0731;0.679
27.607000;-0.5116;-0.2317;-0.1928;0.594
27.621000;-0.3632;-0.0466;-0.3274;0.491
27.624000;-0.3202;0.1299;-0.2098;0.404
27.673000;-0.2441;0.3605;0.0814;0.443
27.675000;-0.0357;0.5716;0.0809;0.578
27.676000;0.1735;0.7252;-0.0645;0.748
27.677000;0.1452;0.8201;-0.2186;0.861
27.678000;-0.1550;0.7152;-0.4550;0.862
27.685000;-0.5829;0.4871;-0.3038;0.818
27.695000;-0.8970;0.2992;0.0813;0.949
27.707000;-1.0824;0.1458;0.3460;1.146
27.757000;-1.1227;0.1350;0.3259;1.177
27.759000;-1.1638;0.2521;0.3319;1.236
27.759000;-1.0819;0.4730;0.7006;1.373
27.760000;-0.7989;0.6527;0.8601;1.343
27.762000;-0.5106;0.8633;0.6861;1.215
27.769000;-0.3185;1.1034;0.4128;1.220
27.775000;-0.2095;1.2488;0.3245;1.307
27.785000;-0.2255;1.2080;0.3701;1.283
27.794000;-0.3613;1.0808;0.5722;1.275
27.804000;-0.3683;0.9309;0.8099;1.288
27.864000;-0.5090;0.7582;1.0755;1.411
27.866000;-0.5069;0.7460;1.0792;1.406
27.867000;-0.8835;0.6603;0.4695;1.199
27.868000;-0.8418;0.6280;0.1317;1.058
27.869000;-0.5803;0.6312;-0.0085;0.857
27.871000;-0.3403;0.6783;-0.0611;0.761
27.874000;-0.2057;0.7656;0.0038;0.793
27.884000;-0.0115;0.8754;0.0848;0.880
27.894000;0.0801;0.8693;0.2435;0.906
27.905000;-0.0222;0.6823;0.2864;0.740
27.952000;-0.1665;0.5050;0.0608;0.535
27.954000;-0.3655;0.4013;-0.2885;0.615
27.955000;-0.4626;0.3830;-0.6289;0.870
27.957000;-0.4059;0.5302;-0.8927;1.115
27.958000;-0.2099;0.7356;-1.0179;1.273
27.966000;0.0707;0.9422;-1.0513;1.414
27.974000;0.2782;1.1127;-1.0062;1.526
27.985000;0.3595;1.1721;-0.9445;1.548
27.994000;0.3828;1.1742;-0.9452;1.555
28.004000;0.3404;1.0863;-0.8912;1.446
28.075000;0.2167;0.8871;-0.7509;1.182
28.077000;0.0057;0.6277;-0.6172;0.880
28.079000;-0.2124;0.4924;-0.4478;0.699
28.079000;-0.2820;0.4572;-0.1972;0.572
28.080000;-0.1855;0.4759;0.0706;0.516
28.082000;-0.0744;0.5527;0.2639;0.617
28.082000;-0.0025;0.6527;0.4351;0.784
28.087000;0.0529;0.7162;0.5455;0.902
28.094000;0.0806;0.6770;0.5620;0.884
28.105000;0.1064;0.6067;0.4015;0.735
28.115000;0.1077;0.6014;0.1155;0.622
28.157000;0.1099;0.6144;-0.2240;0.663
28.158000;0.0943;0.6451;-0.3284;0.730
28.159000;0.0591;0.6591;-0.1253;0.674
28.160000;0.0215;0.6515;0.5441;0.849
28.164000;-0.0226;0.5839;0.7637;0.962
28.175000;-0.0007;0.6122;0.8716;1.065
28.188000;0.0866;0.6996;0.7463;1.027
28.194000;0.1473;0.7784;0.3474;0.865
28.241000;0.1240;0.8491;0.0485;0.859
28.243000;0.1087;0.9348;-0.2213;0.967
28.245000;0.0944;0.9593;-0.3960;1.042
28.245000;0.0570;0.9201;-0.2986;0.969
28.246000;0.0068;0.8155;-0.1307;0.826
28.255000;-0.0152;0.7005;0.0170;0.701
28.264000;-0.0067;0.5899;0.1757;0.616
28.274000;-0.0162;0.4826;0.2568;0.547
28.290000;-0.0364;0.3829;0.2253;0.446
28.294000;-0.0460;0.3397;0.2419;0.420
28.365000;-0.0624;0.3239;0.2748;0.429
28.366000;-0.0536;0.3395;0.2040;0.400
28.367000;-0.0724;0.3997;0.0553;0.410
28.368000;-0.1025;0.4554;-0.0574;0.470
28.369000;-0.1272;0.4325;-0.1597;0.478
28.370000;-0.1464;0.3620;-0.0815;0.399
28.372000;-0.1199;0.2771;0.0262;0.303
28.374000;-0.1414;0.1484;0.0929;0.225
28.385000;-0.1768;0.0583;0.2575;0.318
28.395000;-0.1635;-0.0458;0.4311;0.463
28.405000;-0.1407;-0.0851;0.4674;0.495
28.415000;-0.1135;-0.0807;0.4044;0.428
28.457000;-0.1137;-0.0251;0.2254;0.254
28.459000;-0.1133;0.0530;-0.0945;0.157
28.459000;-0.1318;0.1534;-0.4473;0.491
28.460000;-0.1685;0.2375;-0.7663;0.820
28.464000;-0.2206;0.2400;-0.7546;0.822
28.474000;-0.2337;0.2430;-0.7064;0.783
28.489000;-0.1665;0.2763;-0.5595;0.646
28.494000;-0.0807;0.2606;-0.2670;0.382
28.542000;-0.1017;0.2405;-0.1615;0.307
28.544000;-0.1154;0.2576;-0.1601;0.324
28.545000;-0.0922;0.2883;-0.2123;0.370
28.546000;-0.0584;0.2968;-0.3026;0.428
28.547000;-0.0331;0.2859;-0.4239;0.512
28.554000;-0.0540;0.3051;-0.3202;0.446
28.564000;-0.1105;0.2384;-0.1070;0.284
28.574000;-0.1685;0.1372;0.0287;0.219
28.589000;-0.2366;0.0619;0.0900;0.261
28.594000;-0.2872;0.0449;0.2556;0.387
28.677000;-0.2527;0.0534;0.3398;0.427
28.679000;-0.1513;0.1178;0.2729;0.334
28.679000;-0.0152;0.1982;0.1548;0.252
28.683000;0.0998;0.2711;0.0781;0.299
28.685000;0.1621;0.3337;0.0559;0.375
28.686000;0.1611;0.3255;0.1827;0.407
28.687000;0.1228;0.2558;0.4030;0.493
28.687000;0.0640;0.1503;0.5096;0.535
28.688000;0.0446;0.0988;0.5383;0.549
28.696000;0.0211;0.0971;0.4567;0.467
28.706000;0.0229;0.1492;0.3506;0.382
28.714000;0.0194;0.2038;0.2122;0.295
28.756000;0.0010;0.2374;0.0549;0.244
28.758000;0.0123;0.2857;-0.0374;0.288
28.758000;0.0395;0.3092;-0.0696;0.319
28.759000;0.1192;0.3380;-0.0572;0.363
28.764000;0.1749;0.3656;-0.0359;0.407
28.774000;0.1582;0.3439;0.0129;0.379
28.788000;0.1421;0.2903;0.0760;0.332
28.794000;0.0718;0.1855;0.1708;0.262
28.867000;-0.0622;0.0114;0.3712;0.377
28.868000;-0.0608;0.0146;0.3700;0.375
28.869000;0.0444;0.0786;0.5101;0.518
28.870000;0.1768;0.1802;0.4942;0.555
28.872000;0.2387;0.3165;0.3694;0.542
28.872000;0.2488;0.4003;0.1771;0.503
28.873000;0.2521;0.4388;-0.0242;0.507
28.875000;0.2715;0.4425;-0.1121;0.531
28.885000;0.2736;0.3943;-0.1147;0.493
28.894000;0.2774;0.3299;-0.1048;0.444
28.906000;0.2477;0.2585;-0.0241;0.359
28.915000;0.1507;0.1679;0.1924;0.296
28.974000;0.0511;0.0720;0.4407;0.449
28.976000;-0.0272;-0.0238;0.5193;0.521
28.977000;-0.1095;-0.0036;0.5811;0.591
28.977000;-0.1682;0.0059;0.5552;0.580
28.979000;-0.0671;0.1117;0.2905;0.318
28.980000;0.0466;0.2494;0.0685;0.263
28.985000;0.1349;0.3560;-0.1707;0.417
28.995000;0.2148;0.4280;-0.2936;0.562
29.005000;0.2621;0.4210;-0.3621;0.614
29.014000;0.2761;0.3731;-0.2561;0.530
29.055000;0.1872;0.2504;-0.1322;0.339
29.057000;0.0601;0.0912;-0.1058;0.152
29.059000;-0.0763;-0.0391;-0.0618;0.106
29.060000;-0.1512;-0.0978;-0.0199;0.181
29.064000;-0.1032;-0.0523;-0.0523;0.127
29.074000;-0.0517;0.0591;-0.0566;0.097
29.090000;0.0262;0.1606;0.0415;0.168
29.095000;0.1157;0.2630;0.0767;0.297
29.139000;0.1739;0.3297;0.0848;0.382
29.140000;0.1648;0.3621;0.1466;0.424
29.141000;0.0724;0.3014;0.2700;0.411
29.142000;0.0175;0.1906;0.3989;0.442
29.144000;-0.0357;0.0831;0.4508;0.460
29.154000;-0.1615;-0.0893;0.3112;0.362
29.164000;-0.1770;-0.1461;0.2461;0.336
29.174000;-0.1569;-0.1274;0.1215;0.236
29.190000;-0.0780;-0.0536;0.0670;0.116
29.194000;-0.0137;0.0461;0.0956;0.107
29.264000;0.0766;0.1361;0.0482;0.163
29.265000;0.1699;0.2126;-0.0847;0.285
29.266000;0.1843;0.2376;-0.0495;0.305
29.267000;0.1640;0.1747;-0.1122;0.265
29.268000;0.1027;0.0765;-0.3076;0.333
29.269000;0.0051;0.0292;-0.3141;0.316
29.270000;-0.0798;-0.0277;-0.3821;0.391
29.275000;-0.1743;-0.1185;-0.3516;0.410
29.285000;-0.2259;-0.1518;-0.3293;0.427
29.294000;-0.1621;-0.1181;-0.2146;0.294
29.306000;-0.0404;-0.0365;0.0534;0.076
29.314000;0.0752;0.0407;0.3304;0.341
29.355000;0.1397;0.0802;0.5652;0.588
29.356000;0.1207;0.0701;0.6219;0.637
29.357000;0.0170;0.0310;0.4852;0.487
29.359000;-0.1018;0.0117;0.2158;0.239
29.364000;-0.1624;0.0122;-0.0547;0.172
29.375000;-0.1645;0.0392;-0.2485;0.301
29.392000;-0.0738;0.0728;-0.3529;0.368
29.394000;-0.0326;0.0658;-0.3369;0.345
29.452000;0.0155;0.0870;-0.1745;0.196
29.453000;0.0216;0.0965;0.0388;0.106
29.454000;-0.0079;0.0653;0.2660;0.274
29.455000;-0.0400;0.0715;0.3254;0.336
29.456000;-0.1163;0.0882;0.3538;0.383
29.457000;-0.1388;0.1428;0.2472;0.317
29.464000;-0.1074;0.2246;0.1861;0.311
29.474000;-0.0085;0.3066;0.1968;0.364
29.490000;0.0897;0.3496;0.4791;0.600
29.494000;0.0927;0.3284;0.5756;0.669
29.541000;0.0225;0.2439;0.4942;0.552
29.542000;-0.1099;0.1312;0.4100;0.444
29.543000;-0.2662;0.0777;0.2966;0.406
29.544000;-0.3472;0.0814;0.0563;0.361
29.554000;-0.3664;0.0367;-0.0401;0.370
29.564000;-0.3412;0.1127;-0.1931;0.408
29.574000;-0.3508;0.1030;-0.1947;0.414
29.589000;-0.3642;0.0325;-0.1766;0.406
29.594000;-0.3852;-0.0362;-0.1695;0.422
29.657000;-0.4090;-0.0215;-0.0092;0.410
29.658000;-0.3522;0.0382;0.1897;0.402
29.659000;-0.2443;0.1169;0.3315;0.428
29.660000;-0.1775;0.1797;0.3675;0.446
29.661000;-0.1359;0.1523;0.2880;0.353
29.662000;-0.1858;0.0599;0.1093;0.224
29.664000;-0.2868;-0.0446;-0.0374;0.293
29.674000;-0.3875;-0.1219;-0.1813;0.445
29.689000;-0.4110;-0.1331;-0.2770;0.513
29.694000;-0.3620;-0.1210;-0.2969;0.484
29.735000;-0.2749;-0.0632;-0.3205;0.427
29.737000;-0.2018;0.0135;-0.3070;0.368
29.737000;-0.1830;0.0680;-0.1831;0.268
29.738000;-0.1444;0.0711;0.1608;0.228
29.744000;-0.0958;-0.0019;0.3423;0.355
29.755000;-0.0931;-0.0749;0.2981;0.321
29.764000;-0.1504;-0.1445;0.2408;0.319
29.774000;-0.1557;-0.1620;0.1701;0.282
29.789000;-0.0481;-0.0997;0.0549;0.124
29.794000;0.0546;-0.0627;0.0253;0.087
29.842000;0.1300;-0.0130;0.0696;0.148
29.844000;0.1868;-0.0004;0.0265;0.189
29.845000;0.3250;0.0235;0.0682;0.333
29.845000;0.3817;0.0086;0.0174;0.382
29.846000;0.4311;0.0219;0.0561;0.435
29.854000;0.4583;0.0653;0.1793;0.496
29.864000;0.4573;0.0921;0.1835;0.501
29.874000;0.4258;0.0860;0.0742;0.441
29.891000;0.3936;0.0981;-0.0060;0.406
29.894000;0.3662;0.1414;-0.0414;0.395
29.940000;0.3496;0.1638;-0.0282;0.387
29.941000;0.3600;0.1681;0.0298;0.398
29.942000;0.3662;0.1330;0.1386;0.414
29.942000;0.3011;-0.0099;0.2797;0.411
29.945000;0.2686;-0.1469;0.3551;0.469
29.954000;0.2602;-0.1919;0.4139;0.525
29.964000;0.2490;-0.1992;0.3101;0.445
29.974000;0.2155;-0.1753;0.2296;0.360
29.991000;0.1962;-0.1174;0.1277;0.262
29.995000;0.2247;-0.0277;-0.0338;0.229
30.047000;0.2593;0.0377;-0.1054;0.282
30.049000;0.3031;0.1121;-0.1983;0.379
30.050000;0.3922;0.1926;-0.2950;0.527
30.051000;0.4441;0.2297;-0.3754;0.625
30.052000;0.4793;0.2007;-0.4528;0.689
30.058000;0.4457;0.1707;-0.5459;0.725
30.064000;0.3847;0.2574;-0.4448;0.642
30.074000;0.2813;0.2767;-0.4261;0.581
30.089000;0.1623;0.1938;-0.3244;0.411
30.094000;0.0490;0.1541;-0.2475;0.296
30.137000;-0.0105;0.1585;-0.1522;0.220
30.138000;0.0430;0.2195;-0.0465;0.228
30.139000;0.1880;0.2158;0.2054;0.352
30.139000;0.2857;0.1702;0.4707;0.576
30.144000;0.3363;0.1959;0.6063;0.720
30.155000;0.3030;0.3804;0.8083;0.943
30.164000;0.2367;0.4616;0.6269;0.814
30.175000;0.1703;0.5097;0.3794;0.658
30.185000;0.0991;0.4745;0.1403;0.505
30.195000;0.0105;0.4129;-0.0255;0.414
30.267000;-0.1147;0.3316;-0.0821;0.360
30.268000;-0.2739;0.2544;-0.0006;0.374
30.270000;-0.3463;0.1728;0.0701;0.393
30.271000;-0.3608;0.1098;0.1704;0.414
30.271000;-0.3520;0.0456;0.1870;0.401
30.272000;-0.3319;0.0397;0.0725;0.342
30.273000;-0.2737;0.1027;-0.0036;0.292
30.275000;-0.1175;0.1638;-0.0929;0.222
30.286000;0.0409;0.1917;-0.2187;0.294
30.294000;0.0409;0.1810;-0.1347;0.229
30.308000;-0.0338;0.1166;0.0410;0.128
30.315000;-0.1299;-0.0012;0.2251;0.260
30.361000;-0.2197;-0.1160;0.3876;0.460
30.362000;-0.2572;-0.1615;0.4076;0.508
30.363000;-0.2475;-0.1821;0.3612;0.474
30.364000;-0.2334;-0.1827;0.3442;0.454
30.365000;-0.1942;-0.1574;0.2046;0.323
30.374000;-0.1673;-0.0834;0.1042;0.214
30.384000;-0.1285;0.0079;0.0808;0.152
30.394000;-0.0127;0.0867;0.0950;0.129
30.444000;0.1040;0.1466;0.2266;0.289
30.446000;0.1821;0.1985;0.3627;0.452
30.447000;0.2281;0.2420;0.4472;0.557
30.448000;0.2145;0.2145;0.4574;0.549
30.448000;0.1699;0.1337;0.3695;0.428
30.455000;0.0465;0.0664;0.2531;0.266
30.464000;-0.0764;0.0318;0.1334;0.157
30.475000;-0.1414;0.0098;0.0811;0.163
30.491000;-0.1110;0.0160;0.2111;0.239
30.495000;-0.0669;0.0649;0.1822;0.205
30.560000;0.0324;0.1372;0.0493;0.149
30.562000;0.1105;0.1853;-0.0776;0.229
30.563000;0.1246;0.1892;-0.1148;0.254
30.563000;0.0892;0.2057;-0.1103;0.250
30.564000;0.0997;0.1997;-0.1239;0.255
30.565000;0.1342;0.1775;-0.1005;0.244
30.566000;0.2040;0.1513;0.0209;0.255
30.574000;0.2397;0.1176;0.1479;0.305
30.585000;0.2256;0.1067;0.1828;0.309
30.595000;0.1928;0.0951;0.1557;0.265
30.641000;0.1600;0.0884;-0.0098;0.183
30.643000;0.1306;0.0885;-0.1796;0.239
30.644000;0.0995;0.0878;-0.2029;0.242
30.645000;0.0946;0.1003;-0.1687;0.218
30.648000;0.1020;0.1114;-0.0784;0.170
30.655000;0.0809;0.0940;0.0531;0.135
30.664000;0.0589;0.0377;0.1959;0.208
30.674000;0.0278;0.0143;0.3211;0.323
30.685000;-0.0218;-0.0107;0.3391;0.340
30.694000;-0.0880;-0.0457;0.3165;0.332
30.776000;-0.1379;-0.0458;0.2297;0.272
30.778000;-0.1765;-0.0560;0.1695;0.251
30.779000;-0.1659;-0.0378;0.1921;0.257
30.780000;-0.1027;0.0011;0.3331;0.349
30.780000;-0.0400;0.0522;0.4762;0.481
30.781000;-0.0263;0.0965;0.3525;0.366
30.782000;-0.0952;0.0977;0.1970;0.240
30.783000;0.1979;0.0988;-0.5674;0.609
30.784000;0.1331;0.2040;-1.7394;1.756
30.795000;-0.5994;0.2912;0.0095;0.666
30.806000;-0.1385;0.1938;0.7538;0.791
30.814000;0.2163;-0.1682;0.2041;0.342
30.848000;-0.1858;0.0445;0.2923;0.349
30.849000;-0.0816;0.0256;0.3270;0.338
30.850000;0.1665;0.0149;0.6666;0.687
