time;ax;ay;az;aT
0.005000;-0.4452;-0.2669;0.7904;0.946
0.005000;-0.1710;-0.2234;0.3651;0.461
0.005000;0.2050;-0.1839;0.1446;0.311
0.012000;0.4532;-0.0582;-0.0540;0.460
0.031000;0.5492;0.1660;-0.2035;0.609
0.031000;0.5706;0.3433;-0.3012;0.731
0.047000;0.5269;0.3961;-0.2183;0.694
0.050000;0.3679;0.3330;-0.1407;0.516
0.061000;0.0913;0.1993;0.0371;0.222
0.071000;-0.2033;0.0452;0.2629;0.335
0.080000;-0.3528;-0.1082;0.4387;0.573
0.090000;-0.3647;-0.1719;0.4918;0.636
0.101000;-0.2535;-0.1387;0.4519;0.536
0.111000;-0.1084;-0.0244;0.2745;0.296
0.121000;0.0279;0.1041;-0.0056;0.108
0.130000;0.1119;0.2028;-0.1916;0.301
0.140000;0.1206;0.2721;-0.1986;0.358
0.150000;0.1019;0.2667;-0.1303;0.314
0.160000;0.0558;0.2295;-0.0172;0.237
0.172000;0.0392;0.1722;0.1748;0.248
0.180000;0.0315;0.1117;0.4809;0.495
0.190000;-0.0756;-0.0656;0.4011;0.413
0.200000;-0.1638;-0.1132;0.2982;0.359
0.210000;-0.2199;-0.1353;0.1837;0.317
0.222000;-0.2086;-0.1181;0.0956;0.258
0.230000;-0.1435;-0.0812;0.1258;0.207
0.240000;-0.0542;-0.0450;0.2480;0.258
0.250000;0.0263;-0.0438;0.3092;0.313
0.260000;0.0565;-0.0830;0.2643;0.283
0.271000;0.0055;-0.1619;0.1374;0.212
0.280000;-0.0084;-0.2083;-0.0047;0.208
0.290000;0.0142;-0.1987;-0.1335;0.240
0.301000;0.0149;-0.1242;-0.1372;0.186
0.310000;-0.0039;-0.0911;0.0523;0.105
0.323000;0.0421;-0.0569;0.1827;0.196
0.330000;0.0292;-0.0873;0.2526;0.269
0.341000;0.0254;-0.0646;0.2339;0.244
0.350000;-0.0083;-0.0826;0.1421;0.165
0.361000;0.0192;-0.0899;0.0684;0.115
0.372000;0.0248;-0.1139;0.0927;0.149
0.380000;0.0339;-0.1249;0.1477;0.196
0.391000;0.0340;-0.0645;0.2420;0.253
0.400000;0.0736;0.0727;0.3553;0.370
0.410000;0.1532;0.1384;0.4067;0.456
0.423000;0.1871;0.1648;0.3903;0.463
0.430000;0.1601;0.2081;0.2212;0.343
0.441000;0.1334;0.2280;-0.0057;0.264
0.450000;0.1321;0.2047;-0.0223;0.245
0.460000;0.1615;0.1860;0.1565;0.292
0.471000;0.1718;0.1873;0.2201;0.336
0.480000;0.1475;0.2499;0.1357;0.320
0.491000;0.0377;0.2455;-0.0118;0.249
0.500000;-0.0637;0.2016;-0.1472;0.258
0.515000;-0.1112;0.1178;-0.0746;0.178
0.523000;-0.0876;0.0525;0.0260;0.105
0.531000;-0.0470;0.0979;-0.0150;0.110
0.552000;-0.0067;0.1065;-0.0540;0.120
0.554000;0.0306;0.1089;-0.0421;0.121
0.560000;0.0174;0.0538;0.0532;0.078
0.572000;0.0033;-0.0108;0.2139;0.214
0.580000;-0.0439;-0.0796;0.4190;0.429
0.591000;-0.0936;-0.1229;0.4227;0.450
0.601000;-0.1226;-0.1594;0.4310;0.476
0.618000;-0.1000;-0.1957;0.4336;0.486
0.623000;-0.0662;-0.0332;0.2682;0.278
0.631000;0.0285;-0.0095;0.1356;0.139
0.650000;0.0877;-0.0582;0.0710;0.127
0.669000;0.1223;-0.1274;0.1215;0.214
0.670000;0.0840;-0.2148;0.2041;0.308
0.671000;-0.0346;-0.3074;0.3616;0.476
0.681000;-0.0926;-0.3597;0.4635;0.594
0.690000;-0.0932;-0.3186;0.3876;0.510
0.701000;-0.0895;-0.1989;0.3625;0.423
0.715000;-0.0160;-0.0787;0.2915;0.302
0.723000;0.1151;-0.0161;0.2295;0.257
0.731000;0.2417;-0.0115;0.3197;0.401
0.744000;0.3202;-0.0223;0.4769;0.575
0.750000;0.3265;-0.0274;0.4583;0.563
0.760000;0.2664;-0.0563;0.3444;0.439
0.772000;0.0665;-0.1115;0.0975;0.162
0.780000;-0.1968;-0.1123;-0.0889;0.243
0.791000;-0.3309;-0.1263;-0.3246;0.480
0.801000;-0.3161;-0.1503;-0.4226;0.549
0.814000;-0.2383;-0.1432;-0.3782;0.469
0.823000;-0.1031;-0.1696;-0.2678;0.333
0.831000;0.0598;-0.1661;0.0293;0.179
0.847000;0.2365;-0.1987;0.3515;0.468
0.851000;0.4337;-0.1250;0.2099;0.498
0.861000;0.4095;0.0314;-0.2120;0.462
0.873000;0.3516;0.2164;-0.5537;0.691
0.881000;0.2602;0.2201;-0.6041;0.694
0.891000;0.3221;0.1436;-0.6010;0.697
0.901000;0.3683;0.3750;-0.5753;0.779
0.910000;0.3138;0.4221;-0.5897;0.790
0.926000;0.2845;0.3878;-0.2773;0.555
0.930000;0.1093;0.1698;0.2658;0.334
0.953000;-0.9824;-0.8900;0.5681;1.442
0.957000;-0.3675;-0.9642;0.0840;1.035
0.961000;-0.4402;-0.3967;-0.4886;0.768
0.971000;-0.5997;0.0734;-0.8679;1.057
0.981000;0.0031;0.4880;-0.6840;0.840
0.993000;0.4611;0.5978;0.1617;0.772
1.001000;0.5730;0.4926;0.8523;1.139
1.018000;0.5204;0.3380;1.1496;1.306
1.027000;0.1314;0.2025;1.1227;1.148
1.030000;-0.3748;0.1226;0.5327;0.663
1.041000;-0.6760;0.0915;-0.3198;0.753
1.050000;-0.7259;0.0870;-0.6942;1.008
1.060000;-0.6433;0.0816;-0.5223;0.833
1.071000;-0.4931;0.0912;-0.0492;0.504
1.081000;-0.4293;0.0758;0.6628;0.793
1.093000;-0.3065;0.0243;0.9092;0.960
1.101000;-0.2482;0.0001;0.6680;0.713
1.123000;-0.4539;-0.1002;0.4606;0.654
1.124000;-0.5895;-0.0705;0.3733;0.701
1.131000;-0.4239;0.1374;0.4298;0.619
1.141000;0.0299;0.5477;0.7482;0.928
1.151000;-0.1973;0.4161;-0.1943;0.500
1.161000;-0.2606;0.3937;0.5981;0.762
1.173000;0.0116;0.3706;0.9905;1.058
1.181000;-0.2442;-0.0244;0.5156;0.571
1.191000;-0.6049;-0.4036;0.7005;1.010
1.201000;-0.5581;-0.6450;0.7744;1.152
1.212000;-0.2624;-0.5770;0.5637;0.848
1.235000;-0.0037;-0.3523;0.3282;0.482
1.238000;0.1105;-0.1000;0.0871;0.173
1.244000;0.1366;0.0221;-0.0737;0.157
1.251000;-0.0634;0.0309;-0.0104;0.071
1.261000;-0.3246;-0.0685;0.1443;0.362
1.271000;-0.3989;-0.1657;0.1842;0.470
1.280000;-0.2703;-0.2081;0.1975;0.394
1.293000;-0.1063;-0.1898;0.3253;0.391
1.301000;0.1228;-0.1506;0.3707;0.418
1.315000;0.1916;-0.2531;0.1404;0.347
1.321000;0.0325;-0.3701;-0.0660;0.377
1.331000;-0.1914;-0.3658;-0.1531;0.440
1.341000;-0.3352;-0.3479;-0.2096;0.527
1.350000;-0.3163;-0.2473;-0.2485;0.472
1.361000;-0.2505;-0.0894;-0.4234;0.500
1.371000;-0.1662;0.0316;-0.4778;0.507
1.381000;-0.0864;0.0662;-0.4013;0.416
1.393000;-0.0725;-0.0102;-0.2700;0.280
1.402000;-0.1495;-0.1493;-0.0823;0.227
1.421000;-0.1621;-0.1928;-0.0209;0.253
1.425000;-0.0715;-0.0893;-0.1087;0.158
1.430000;0.0317;0.0279;-0.0926;0.102
1.441000;0.1167;0.0914;-0.0035;0.148
1.450000;0.1592;0.1231;0.0982;0.224
1.461000;0.1169;0.1589;0.0707;0.210
1.471000;-0.0357;0.0821;0.1708;0.193
1.482000;-0.1007;0.0161;0.3452;0.360
1.497000;-0.0643;0.0502;0.4511;0.458
1.502000;0.0247;0.0818;0.5946;0.601
1.531000;0.1056;0.2006;0.5461;0.591
1.533000;0.1146;0.1797;0.4840;0.529
1.535000;0.0900;0.1306;0.4077;0.438
1.543000;-0.0378;0.0458;0.2295;0.237
1.551000;-0.2296;-0.0445;0.0486;0.239
1.561000;-0.3786;-0.0570;0.0335;0.384
1.571000;-0.3994;-0.0457;0.0992;0.414
1.582000;-0.2643;0.0516;0.2278;0.353
1.596000;-0.0981;0.1676;0.3548;0.404
1.627000;0.0606;0.2418;0.4487;0.513
1.629000;0.1490;0.2384;0.3348;0.437
1.629000;0.1159;0.1888;0.0850;0.237
1.631000;0.0091;0.1265;-0.0643;0.142
1.641000;-0.1114;0.0721;-0.2078;0.247
1.651000;-0.2376;-0.0049;-0.2307;0.331
1.661000;-0.2445;-0.0273;-0.1578;0.292
1.671000;-0.1380;-0.0313;-0.0890;0.167
1.681000;0.0356;0.0232;0.0500;0.066
1.697000;0.1845;0.0995;0.1077;0.236
1.702000;0.1969;0.1384;-0.0121;0.241
1.725000;0.0719;0.1230;-0.0867;0.167
1.726000;0.0343;0.0532;0.0463;0.078
1.731000;0.0705;0.0270;0.1799;0.195
1.741000;0.0751;0.0638;0.2718;0.289
1.751000;0.0822;0.2116;0.2250;0.320
1.761000;0.1235;0.4051;0.0582;0.427
1.771000;0.2290;0.5699;-0.0770;0.619
1.781000;0.3279;0.6180;-0.2284;0.736
1.794000;0.3015;0.5798;-0.2037;0.684
1.801000;0.2532;0.4813;-0.1800;0.573
1.825000;0.2049;0.3834;-0.1775;0.470
1.827000;0.3996;0.4113;-0.1377;0.590
1.831000;0.1015;0.2593;0.3311;0.433
1.841000;-0.1618;-0.0844;0.5494;0.579
1.851000;-0.2250;-0.1167;0.5556;0.611
1.861000;-0.1849;-0.1064;0.3980;0.452
1.871000;-0.0827;-0.0869;0.1728;0.210
1.881000;-0.0487;-0.0623;0.0521;0.095
1.895000;-0.0161;-0.0283;0.0609;0.069
1.900000;-0.0011;-0.0294;0.1428;0.146
1.926000;-0.0135;-0.1256;0.2084;0.244
1.928000;-0.1108;-0.2424;0.1800;0.322
1.936000;-0.2823;-0.3113;0.0982;0.432
1.951000;-0.3911;-0.3449;-0.0970;0.530
1.952000;-0.4167;-0.3019;-0.2336;0.565
1.971000;-0.3258;-0.1538;-0.2820;0.458
1.972000;-0.1676;0.0357;-0.2486;0.302
1.982000;0.0278;0.2388;-0.2173;0.324
1.998000;0.2149;0.4009;-0.1821;0.490
2.000000;0.2719;0.4522;-0.1988;0.564
2.015000;0.1886;0.3816;-0.2113;0.475
2.020000;0.0446;0.2572;-0.2263;0.346
2.044000;-0.0774;0.1600;-0.3465;0.389
2.045000;-0.1853;0.1086;-0.4726;0.519
2.051000;-0.2804;0.1235;-0.4976;0.584
2.062000;-0.2815;0.1181;-0.2613;0.402
2.070000;-0.1976;0.0897;0.0471;0.222
2.081000;-0.1439;0.0171;0.3509;0.380
2.099000;-0.1540;-0.0679;0.5818;0.606
2.101000;-0.2130;-0.1779;0.6809;0.735
2.118000;-0.2907;-0.2352;0.7242;0.815
2.121000;-0.3269;-0.2595;0.7162;0.829
2.130000;-0.3306;-0.2723;0.6568;0.784
2.141000;-0.3760;-0.2701;0.4500;0.646
2.150000;-0.3361;-0.1671;0.4245;0.567
2.161000;-0.2627;-0.1351;0.2540;0.390
2.170000;-0.1697;-0.1437;0.5320;0.577
2.181000;-0.1280;-0.2561;0.6242;0.687
2.196000;-0.1864;-0.2207;0.6181;0.682
2.201000;-0.1928;-0.1859;0.6394;0.693
2.215000;-0.1781;-0.1915;0.6470;0.698
2.220000;-0.0987;-0.1230;0.5499;0.572
2.231000;-0.0214;-0.0605;0.3511;0.357
2.242000;-0.0013;-0.0021;0.1692;0.169
2.250000;-0.0211;0.0413;0.0079;0.047
2.261000;-0.0327;0.0843;-0.0958;0.132
2.270000;-0.0809;0.0215;-0.1232;0.149
2.281000;-0.1225;-0.0192;-0.1738;0.214
2.295000;-0.1356;-0.0864;-0.2218;0.274
2.300000;-0.1225;-0.0983;-0.2939;0.333
2.323000;-0.0630;-0.0639;-0.3724;0.383
2.325000;-0.0179;0.0333;-0.3702;0.372
2.331000;0.0340;0.1205;-0.2649;0.293
2.341000;0.1207;0.1468;-0.1326;0.232
2.351000;0.1835;0.1318;-0.0103;0.226
2.362000;0.2009;0.0859;0.0651;0.228
2.370000;0.1647;0.0364;0.1610;0.233
2.381000;0.1425;0.0271;0.1589;0.215
2.395000;0.1265;-0.0103;0.0912;0.156
2.401000;0.1216;-0.0166;0.0367;0.128
2.424000;0.0827;-0.0142;0.0682;0.108
2.426000;0.0638;-0.0107;0.1607;0.173
2.431000;0.0693;0.0006;0.2163;0.227
2.441000;0.1112;0.0284;0.2528;0.278
2.450000;0.2072;0.1021;0.3208;0.395
2.461000;0.3685;0.1965;0.3150;0.523
2.471000;0.5420;0.3118;0.2629;0.678
2.482000;0.6618;0.4107;0.2793;0.827
2.494000;0.7523;0.4414;0.2986;0.922
2.501000;0.7364;0.4358;0.2012;0.879
2.515000;0.3622;0.2493;0.0765;0.446
2.521000;0.1907;0.1138;0.0161;0.223
2.544000;0.1089;0.0375;0.1084;0.158
2.546000;0.1089;0.0206;0.2202;0.247
2.551000;0.1816;0.0549;0.3089;0.363
2.561000;0.2185;0.0785;0.3401;0.412
2.571000;0.2261;0.0891;0.2820;0.372
2.581000;0.1988;0.0504;0.1598;0.260
2.592000;0.1590;-0.0262;0.0044;0.161
2.601000;0.0717;-0.0890;-0.1101;0.159
2.612000;-0.0324;-0.1566;-0.0719;0.175
2.620000;-0.0606;-0.1832;0.1145;0.224
2.645000;0.0135;-0.1639;0.3086;0.350
2.647000;0.0681;-0.1157;0.4212;0.442
2.651000;0.0952;-0.0553;0.4014;0.416
2.661000;0.1156;0.0054;0.2854;0.308
2.670000;0.1580;0.0399;0.1560;0.226
2.681000;0.1711;0.0426;0.0680;0.189
2.692000;0.1089;0.0425;-0.0852;0.145
2.700000;0.0342;0.0680;-0.2297;0.242
2.711000;-0.0415;0.0575;-0.2921;0.301
2.721000;-0.0722;0.0137;-0.3455;0.353
2.732000;-0.1318;-0.0301;-0.3375;0.364
2.770000;-0.2221;-0.0602;-0.2099;0.311
2.771000;-0.2572;-0.1094;-0.0736;0.289
2.772000;-0.2577;-0.1065;0.0728;0.288
2.773000;-0.2369;-0.0650;0.1819;0.306
2.781000;-0.2207;-0.0103;0.2603;0.341
2.792000;-0.1901;0.0711;0.2702;0.338
2.801000;-0.1225;0.1260;0.1985;0.265
2.811000;-0.0924;0.1834;0.0713;0.217
2.820000;-0.0807;0.1794;-0.1270;0.234
2.831000;-0.0905;0.1549;-0.2929;0.343
2.851000;-0.0980;0.1124;-0.2307;0.275
2.852000;-0.0847;0.0553;-0.1119;0.151
2.860000;-0.1083;0.0197;-0.0107;0.111
2.870000;-0.1396;0.0142;0.0875;0.165
2.880000;-0.1815;-0.0244;0.2461;0.307
2.892000;-0.1875;-0.0835;0.3456;0.402
2.901000;-0.1945;-0.1117;0.3471;0.413
2.911000;-0.1846;-0.0991;0.2616;0.335
2.921000;-0.1334;-0.0687;0.1216;0.193
2.931000;-0.0789;-0.0304;0.0218;0.087
2.955000;-0.0391;0.0224;-0.0453;0.064
2.961000;-0.0880;0.0465;0.0439;0.109
2.970000;-0.1356;-0.0194;0.1802;0.226
2.981000;-0.1664;-0.0885;0.2859;0.342
2.993000;-0.2042;-0.1067;0.3064;0.383
3.001000;-0.1899;-0.0734;0.2107;0.293
3.012000;-0.1393;-0.0507;0.0305;0.151
3.021000;-0.1086;0.0191;-0.0859;0.140
3.030000;-0.0695;0.1160;-0.0838;0.159
3.062000;0.0018;0.2009;0.0418;0.205
3.064000;0.0729;0.2306;0.2080;0.319
3.065000;0.0906;0.2387;0.3540;0.436
3.071000;0.0774;0.1869;0.3874;0.437
3.081000;0.0070;0.1232;0.3694;0.389
3.094000;-0.0615;0.0657;0.2890;0.303
3.101000;-0.1090;0.0169;0.2145;0.241
3.111000;-0.1400;0.0292;0.2081;0.253
3.120000;-0.1130;0.0938;0.2571;0.296
3.132000;-0.0691;0.1470;0.2978;0.339
3.154000;0.0585;0.2040;0.2743;0.347
3.156000;0.0591;0.2043;0.2742;0.347
3.164000;0.0621;0.1449;0.2015;0.256
3.170000;0.0133;0.0232;0.2928;0.294
3.181000;0.0111;0.0141;0.3804;0.381
3.192000;0.0165;0.0171;0.3878;0.389
3.201000;0.0069;0.0030;0.3283;0.328
3.211000;0.0125;-0.0159;0.3000;0.301
3.220000;0.0304;-0.0290;0.3064;0.309
3.231000;0.0180;-0.0300;0.2829;0.285
3.258000;-0.0081;-0.0627;0.2500;0.258
3.259000;-0.0153;-0.0899;0.1550;0.180
3.261000;0.0029;-0.1059;0.0639;0.124
3.270000;0.0265;-0.0522;0.0068;0.059
3.281000;0.0441;0.0174;-0.1147;0.124
3.294000;0.0680;0.0829;-0.2018;0.229
3.300000;0.0577;0.1016;-0.1840;0.218
3.311000;0.0558;0.0562;-0.1069;0.133
3.321000;-0.0007;-0.0341;-0.0210;0.040
3.335000;-0.0619;-0.0706;0.0537;0.108
3.347000;-0.0410;-0.0442;0.0300;0.067
3.371000;0.0334;-0.0067;0.0181;0.039
3.373000;0.1275;0.0704;0.0194;0.147
3.376000;0.1734;0.1219;-0.0091;0.212
3.381000;0.1401;0.0918;0.1205;0.206
3.393000;0.0491;0.0303;0.2419;0.249
3.401000;0.1078;0.1018;0.1633;0.221
3.411000;0.1112;0.1436;-0.2190;0.285
3.420000;0.1103;0.1171;-0.4337;0.463
3.432000;0.0954;0.0956;-0.4402;0.460
3.457000;0.0878;0.1020;-0.3474;0.373
3.461000;0.0520;0.0536;-0.0362;0.083
3.462000;-0.0119;-0.0826;0.2640;0.277
3.471000;0.0813;-0.1272;0.4754;0.499
3.482000;0.0132;-0.0665;0.4414;0.447
3.491000;0.0023;0.0071;0.2291;0.229
3.501000;0.1145;0.1329;-0.3326;0.376
3.515000;0.1909;0.2135;-0.5037;0.579
3.557000;0.2185;0.2396;-0.4973;0.594
3.558000;0.0459;0.0955;-0.0076;0.106
3.559000;-0.0211;-0.0113;0.2979;0.299
3.561000;-0.0267;-0.0452;0.3648;0.369
3.570000;-0.0469;-0.0570;0.3278;0.336
3.581000;-0.0947;-0.0543;0.3546;0.371
3.590000;-0.0329;0.0069;0.1381;0.142
3.601000;0.0448;0.0876;-0.0592;0.115
3.618000;0.0241;0.1118;-0.2073;0.237
3.663000;-0.0650;0.0835;-0.2729;0.293
3.665000;-0.1057;0.0787;-0.2525;0.285
3.665000;-0.1137;0.0830;-0.0497;0.149
3.666000;-0.0839;0.0882;0.3152;0.338
3.667000;-0.0378;0.0830;0.6796;0.686
3.671000;-0.0636;0.0753;0.9080;0.913
3.681000;-0.1487;0.0555;1.0979;1.109
3.690000;-0.1876;0.0100;1.0973;1.113
3.701000;-0.2065;0.0238;0.8367;0.862
3.723000;-0.1921;0.1012;0.5148;0.559
3.726000;-0.1432;0.1856;0.1707;0.290
3.731000;-0.0969;0.2471;-0.0333;0.267
3.741000;-0.0311;0.3008;-0.1130;0.323
3.764000;0.0546;0.3537;-0.1629;0.393
3.765000;0.0727;0.3754;-0.1852;0.425
3.771000;0.0190;0.3491;-0.0806;0.359
3.781000;-0.0227;0.2770;0.1067;0.298
3.794000;-0.0494;0.1987;0.2738;0.342
3.801000;-0.0681;0.1385;0.2928;0.331
3.812000;-0.0837;0.1219;0.2378;0.280
3.820000;0.0130;0.0986;0.2322;0.253
3.832000;0.3045;0.1586;0.3573;0.496
3.842000;0.2867;0.1675;0.4312;0.544
3.863000;0.2150;0.0895;0.4528;0.509
3.864000;0.1010;-0.0322;0.4015;0.415
3.870000;-0.0327;-0.2491;0.4147;0.485
3.881000;-0.1478;-0.3837;0.3774;0.558
3.890000;-0.1679;-0.3667;0.2478;0.473
3.901000;-0.1160;-0.2348;0.0836;0.275
3.916000;-0.1080;-0.0691;-0.1100;0.169
3.922000;-0.1700;0.0179;-0.1464;0.225
3.949000;-0.2277;0.0450;-0.0661;0.241
3.951000;-0.2620;-0.0708;-0.2607;0.376
3.953000;-0.2046;0.0493;-0.1585;0.263
3.961000;-0.1622;0.0580;-0.3401;0.381
3.970000;-0.2057;0.0991;-0.5603;0.605
3.981000;-0.2229;0.1499;-0.7119;0.761
3.991000;-0.2622;0.1787;-0.8432;0.901
4.001000;-0.3636;0.1566;-0.8786;0.964
4.015000;-0.4931;0.1495;-0.7476;0.908
4.020000;-0.5221;0.1417;-0.5144;0.746
4.045000;-0.4575;0.0868;-0.3355;0.574
4.046000;-0.4376;0.0258;-0.1746;0.472
4.050000;-0.4525;0.0151;0.0351;0.454
4.061000;-0.4106;-0.0055;0.1790;0.448
4.070000;-0.2905;-0.0348;0.2463;0.382
4.081000;-0.1002;-0.0789;0.2845;0.312
4.091000;0.1083;-0.1136;0.3689;0.401
4.101000;0.2678;-0.1592;0.5235;0.609
4.114000;0.3998;-0.1860;0.6040;0.748
4.120000;0.5245;-0.1765;0.5771;0.800
4.153000;0.5923;-0.1564;0.4308;0.749
4.154000;0.5991;-0.1716;0.1586;0.643
4.155000;0.5182;-0.1629;-0.2240;0.588
4.190000;0.1438;-0.2038;-0.6827;0.727
4.192000;0.0541;-0.2157;-0.7329;0.766
4.193000;0.0241;-0.1858;-0.6587;0.685
4.195000;0.0699;-0.0373;-0.5095;0.516
4.203000;0.1095;0.1308;-0.4079;0.442
4.235000;0.1891;0.3246;-0.3570;0.518
4.237000;0.3024;0.4751;-0.2366;0.611
4.238000;0.4494;0.5112;-0.1499;0.697
4.247000;0.5236;0.4373;-0.0113;0.682
4.251000;0.5529;0.3023;0.3697;0.731
4.261000;0.5136;0.1201;0.8036;0.961
4.270000;0.4697;0.0167;1.1675;1.259
4.289000;0.4587;0.0256;1.3382;1.415
4.302000;0.4804;0.2294;1.0386;1.167
4.342000;0.5228;0.3177;0.5765;0.841
4.343000;0.5305;0.3421;0.1965;0.661
4.344000;0.3979;0.2735;-0.0448;0.485
4.345000;0.2117;0.1534;-0.1568;0.305
4.351000;0.0431;0.0396;-0.3116;0.317
4.361000;-0.1036;-0.0282;-0.4180;0.432
4.370000;-0.2086;-0.0747;-0.4266;0.481
4.380000;-0.2270;-0.0673;-0.3072;0.388
4.390000;-0.1061;-0.0101;-0.1130;0.155
4.400000;0.0858;0.1165;-0.0318;0.148
4.412000;0.2890;0.2218;0.0538;0.368
4.420000;0.4490;0.3255;0.0993;0.563
4.438000;0.5215;0.3764;0.1118;0.653
4.440000;0.4982;0.3723;0.2457;0.669
4.450000;0.3786;0.3195;0.2724;0.565
4.461000;0.1717;0.2293;0.3723;0.470
4.470000;-0.0033;0.1269;0.4664;0.483
4.481000;-0.1660;0.0741;0.4639;0.498
4.490000;-0.2834;0.1054;0.5816;0.655
4.500000;-0.1128;0.3209;0.6951;0.774
4.514000;-0.0795;0.3246;0.5695;0.660
4.520000;-0.1846;0.3074;0.2195;0.420
4.542000;-0.3788;0.2275;-0.1349;0.462
4.543000;-0.6337;0.0767;-0.2547;0.687
4.551000;-0.9262;-0.0301;-0.1247;0.935
4.561000;-1.1850;-0.0777;0.0495;1.189
4.570000;-1.2541;-0.0119;-0.0523;1.255
4.581000;-1.2155;0.0664;-0.2926;1.252
4.590000;-1.1212;0.1720;-0.5397;1.256
4.600000;-0.9936;0.3040;-0.7792;1.299
4.614000;-0.9073;0.4298;-0.9048;1.352
4.621000;-0.8125;0.4840;-0.8667;1.283
4.638000;-0.7200;0.5257;-0.7394;1.158
4.641000;-0.6193;0.6379;-0.6360;1.093
4.651000;-0.5298;0.8359;-0.6880;1.205
4.661000;-0.4826;0.9958;-0.8934;1.422
4.670000;-0.4559;1.0412;-1.1406;1.610
4.680000;-0.3924;0.9934;-1.3540;1.725
4.690000;-0.2997;0.8682;-1.4603;1.725
4.701000;-0.1992;0.6571;-1.3204;1.488
4.716000;-0.1655;0.3537;-0.9608;1.037
4.721000;-0.1705;0.0869;-0.4416;0.481
4.752000;-0.1877;-0.0980;-0.0190;0.213
4.754000;-0.3256;-0.3375;0.4474;0.648
4.754000;-0.5107;-0.5042;0.6834;0.991
4.761000;-0.6705;-0.6450;0.6510;1.136
4.771000;-0.8012;-0.6588;0.3158;1.084
4.780000;-0.8439;-0.5864;-0.1449;1.038
4.790000;-0.7592;-0.3788;-0.5730;1.024
4.801000;-0.6159;-0.0692;-0.8330;1.038
4.816000;-0.3528;0.5474;-0.9295;1.135
4.845000;-0.2417;0.7805;-0.8572;1.184
4.846000;-0.0918;1.1009;-0.8892;1.418
4.851000;-0.1364;1.2836;-1.0037;1.635
4.861000;-0.1766;1.4350;-0.9378;1.723
4.870000;-0.1479;1.5510;-0.7040;1.710
4.881000;-0.0835;1.6197;-0.3758;1.665
4.890000;-0.0330;1.6811;0.0249;1.682
4.900000;0.0205;1.7505;0.3438;1.784
4.914000;0.0405;1.7270;0.5813;1.823
4.920000;-0.0076;1.6463;0.8210;1.840
4.937000;-0.0217;1.6128;0.9756;1.885
4.940000;-0.0880;1.4968;1.1093;1.865
4.950000;-0.1960;1.3701;1.3486;1.932
4.963000;-0.2556;1.2708;1.5811;2.045
4.970000;-0.2197;1.2643;1.7387;2.161
4.981000;-0.0617;1.3040;1.8840;2.292
4.990000;0.2944;1.3218;2.0780;2.480
5.000000;0.6415;1.2490;2.4311;2.807
5.015000;0.9067;1.0735;2.7770;3.112
5.020000;1.0234;0.7610;2.9950;3.255
5.043000;0.9039;0.3330;3.1918;3.334
5.045000;0.5649;-0.1725;3.3433;3.395
5.050000;0.2748;-0.6075;3.3313;3.397
5.061000;0.3066;-0.9393;3.1246;3.277
5.070000;0.6288;-1.0259;2.8776;3.119
5.080000;1.0360;-0.9134;2.7022;3.035
5.090000;1.4335;-0.7027;2.5069;2.972
5.100000;1.7946;-0.5264;2.2209;2.903
5.115000;1.9758;-0.4781;1.9557;2.821
5.122000;1.8673;-0.5521;1.6211;2.534
5.153000;1.5859;-0.6580;1.0297;2.002
5.155000;1.3122;-0.7378;0.3235;1.540
5.156000;1.1312;-0.8187;-0.9685;1.699
5.163000;0.8777;-0.7388;-1.3629;1.781
5.170000;0.7508;-0.6883;-1.5801;1.880
5.180000;0.6836;-0.5625;-1.7547;1.965
5.190000;0.6417;-0.3707;-1.9447;2.081
5.201000;0.6034;-0.2186;-2.0386;2.137
5.216000;0.4760;-0.1455;-2.0670;2.126
5.221000;0.2307;-0.1659;-1.9612;1.982
5.250000;-0.0527;-0.2157;-1.8142;1.828
5.251000;-0.2772;-0.2632;-1.7327;1.774
5.253000;-0.3924;-0.2546;-1.7672;1.828
5.262000;-0.4405;-0.2176;-1.7845;1.851
5.270000;-0.4470;-0.1533;-1.7955;1.857
5.281000;-0.4069;-0.0017;-1.7487;1.795
5.291000;-0.2542;0.2215;-1.5408;1.577
5.300000;0.0072;0.4682;-1.3048;1.386
5.316000;0.2009;0.6364;-1.0580;1.251
5.321000;0.2195;0.6973;-0.6818;1.000
5.347000;0.1983;0.6833;-0.3736;0.804
5.349000;0.1673;0.6056;-0.2910;0.692
5.350000;0.0978;0.4945;-0.3645;0.622
5.362000;-0.0094;0.3931;-0.4875;0.626
5.370000;-0.0433;0.3401;-0.5726;0.667
5.380000;-0.0470;0.2973;-0.6008;0.672
5.391000;-0.0621;0.2560;-0.6133;0.667
5.401000;-0.1546;0.1772;-0.4633;0.520
5.412000;-0.2514;0.1137;-0.1871;0.333
5.422000;-0.2858;0.0701;-0.0233;0.295
5.468000;-0.2977;0.0517;-0.0042;0.302
5.470000;-0.2692;0.1073;-0.0547;0.295
5.471000;-0.1867;0.2017;-0.1008;0.293
5.472000;-0.0329;0.2833;-0.1860;0.341
5.473000;0.2243;0.4724;-0.0580;0.526
5.481000;0.2273;0.4693;-0.0567;0.525
5.490000;0.5724;0.6329;0.0927;0.858
5.501000;0.6898;0.6570;0.0685;0.955
5.516000;0.7081;0.6363;0.0097;0.952
5.521000;0.7039;0.5991;-0.0489;0.926
5.553000;0.6845;0.5585;-0.0710;0.886
5.554000;0.6235;0.4769;0.0550;0.787
5.555000;0.5156;0.3593;0.3281;0.709
5.561000;0.3356;0.2327;0.6246;0.746
5.571000;0.0603;0.1353;1.0183;1.029
5.580000;-0.2055;0.1288;1.2387;1.262
5.590000;-0.2996;0.2500;1.0906;1.158
5.600000;-0.3165;0.4250;0.8909;1.037
5.617000;-0.2967;0.6199;0.8169;1.068
5.621000;-0.2360;0.9151;0.9103;1.312
5.645000;-0.1019;1.2103;0.9594;1.548
5.647000;0.1294;1.3401;0.8602;1.598
5.650000;0.3605;1.2058;0.8425;1.514
5.661000;0.5285;0.9205;1.1076;1.534
5.670000;0.5396;0.5794;1.5089;1.704
5.682000;0.4335;0.2249;2.0285;2.086
5.692000;0.2382;-0.2310;2.6111;2.632
5.701000;-0.0198;-0.6888;3.1883;3.262
5.712000;-0.3519;-1.0487;3.4865;3.658
5.722000;-0.7690;-1.3350;3.4307;3.761
5.761000;-1.1557;-1.4618;2.9573;3.495
5.764000;-1.4456;-1.5491;2.1479;3.017
5.765000;-1.5677;-1.5051;1.0596;2.418
5.766000;-1.5097;-1.2861;0.1180;1.987
5.770000;-1.2813;-1.0141;-0.4539;1.696
5.781000;-0.8661;-0.7616;-0.8618;1.440
5.791000;-0.3834;-0.5443;-1.1473;1.326
5.801000;0.0612;-0.4143;-1.2680;1.335
5.811000;0.4256;-0.3905;-1.2412;1.369
5.821000;0.5792;-0.7696;-1.0673;1.438
5.857000;0.3253;-1.2151;-0.8632;1.526
5.859000;0.0159;-1.6274;-0.5558;1.720
5.861000;-0.3644;-1.9951;-0.0478;2.029
5.863000;-0.7573;-2.2517;0.4423;2.416
5.870000;-1.0112;-2.3592;0.8339;2.699
5.881000;-1.0465;-2.2650;1.0358;2.702
5.890000;-0.8996;-1.9318;0.8720;2.303
5.901000;-0.6318;-1.3950;0.2382;1.550
5.911000;-0.3869;-0.8331;-0.6016;1.098
5.921000;-0.2304;-0.3506;-1.3431;1.407
5.955000;-0.0503;0.0406;-1.8616;1.863
5.957000;0.1039;0.2965;-2.1947;2.217
5.959000;0.1288;0.3427;-2.2900;2.319
5.965000;0.0424;0.2878;-2.1601;2.180
5.971000;-0.0628;0.2516;-1.9490;1.966
5.981000;-0.0591;0.2893;-1.8515;1.875
5.991000;-0.0710;0.3738;-1.6452;1.689
6.001000;0.0015;0.5192;-1.4211;1.513
6.011000;0.1506;0.6423;-1.1924;1.363
6.022000;0.2576;0.6725;-0.9689;1.207
6.059000;0.2364;0.6694;-0.9439;1.181
6.062000;0.1225;0.6584;-1.0349;1.233
6.062000;-0.0168;0.6567;-1.0857;1.269
6.063000;-0.0830;0.6860;-1.1927;1.378
6.070000;-0.1189;0.7414;-1.2295;1.441
6.081000;-0.1499;0.7701;-1.0990;1.350
6.090000;-0.2757;0.7487;-0.7677;1.107
6.101000;-0.3910;0.7808;-0.6873;1.111
6.111000;-0.4878;0.7566;-0.4888;1.024
6.121000;-0.5893;0.7323;-0.3917;1.018
6.148000;-0.6345;0.7873;-0.3258;1.062
6.150000;-0.5402;0.7340;-0.0589;0.913
6.151000;-0.4968;0.6635;0.0606;0.831
6.161000;-0.4635;0.6592;0.1707;0.824
6.170000;-0.3512;0.6893;0.1444;0.787
6.182000;-0.2353;0.7396;0.1489;0.790
6.190000;-0.1725;0.8136;0.2740;0.876
6.201000;-0.1238;0.8301;0.3323;0.903
6.211000;-0.0745;0.7445;0.3882;0.843
6.222000;-0.1518;0.5609;0.5420;0.795
6.264000;-0.3882;0.4703;0.8054;1.010
6.266000;-0.5603;0.5238;0.9170;1.196
6.267000;-0.4590;0.7415;0.8484;1.217
6.268000;-0.1675;0.9878;0.6091;1.172
6.271000;0.1324;1.1741;0.5339;1.297
6.281000;0.3056;1.2977;0.7621;1.536
6.291000;0.5018;1.4092;0.8651;1.728
6.302000;0.7222;1.4373;0.8285;1.809
6.311000;0.9808;1.3015;1.0375;1.932
6.322000;1.1105;0.9486;1.6352;2.192
6.368000;1.1172;0.4366;2.5162;2.787
6.369000;1.0019;-0.2157;3.3447;3.498
6.371000;0.8763;-0.8622;3.9185;4.107
6.372000;0.6985;-1.3991;4.1461;4.431
6.374000;0.5492;-1.6944;4.2275;4.587
6.381000;0.3813;-1.8207;4.2061;4.599
6.390000;0.3090;-1.7698;4.1252;4.499
6.400000;0.3771;-1.5724;4.0045;4.319
6.410000;0.5099;-1.4194;3.9551;4.233
6.421000;0.6811;-1.2851;3.6010;3.884
6.455000;0.7660;-1.1253;2.7166;3.039
6.458000;0.6942;-0.9723;1.5227;1.935
6.459000;0.5672;-0.8731;0.4126;1.120
6.461000;0.4865;-0.8733;-0.4291;1.088
6.471000;0.4258;-0.9290;-1.0309;1.452
6.481000;0.2248;-1.0146;-1.4739;1.803
6.490000;-0.0159;-1.0748;-1.4683;1.820
6.500000;0.0335;-0.9913;-1.3575;1.681
6.510000;0.1310;-0.8083;-1.1271;1.393
6.522000;0.1160;-0.7188;-0.7973;1.080
6.546000;0.0965;-0.6427;-0.4934;0.816
6.548000;-0.0061;-0.5584;-0.3685;0.669
6.551000;-0.1505;-0.4971;-0.3758;0.641
6.561000;-0.2332;-0.4315;-0.5362;0.727
6.570000;-0.2345;-0.3294;-0.7898;0.887
6.582000;-0.1806;-0.2150;-1.1323;1.167
6.590000;-0.1153;-0.0157;-1.4660;1.471
6.602000;-0.0011;0.2083;-1.7117;1.724
6.610000;0.1884;0.4718;-1.8224;1.892
6.621000;0.4007;0.7774;-1.7560;1.962
6.657000;0.6327;1.0018;-1.6685;2.046
6.660000;0.7613;1.0910;-1.4703;1.983
6.661000;0.7570;1.0306;-1.2309;1.775
6.665000;0.6289;0.7999;-1.0709;1.477
6.671000;0.3703;0.5584;-0.9635;1.174
6.682000;0.0786;0.4164;-1.0326;1.116
6.690000;-0.1533;0.3306;-1.3483;1.397
6.701000;-0.2924;0.2589;-1.6498;1.695
6.711000;-0.3500;0.2219;-1.8737;1.919
6.722000;-0.4085;0.2229;-1.9971;2.051
6.765000;-0.5038;0.1686;-2.0476;2.115
6.767000;-0.6999;0.0031;-1.9499;2.072
6.768000;-0.8716;-0.2052;-1.5251;1.769
6.770000;-0.8793;-0.3714;-1.0570;1.424
6.771000;-0.8125;-0.4295;-0.5695;1.081
6.782000;-0.6717;-0.3626;-0.1877;0.786
6.791000;-0.5164;-0.2304;0.1183;0.578
6.801000;-0.3470;-0.0564;0.2056;0.407
6.811000;-0.1790;0.1550;0.0171;0.237
6.822000;0.2078;0.6797;-0.4483;0.840
6.852000;0.3652;0.8461;-0.5061;1.051
6.854000;0.4233;0.8279;-0.4025;1.013
6.854000;0.4059;0.7299;-0.1429;0.847
6.860000;0.3012;0.5962;0.2048;0.699
6.870000;0.1932;0.5232;0.6289;0.841
6.882000;0.0532;0.4900;1.1471;1.249
6.890000;-0.1162;0.4445;1.5526;1.619
6.901000;-0.2086;0.4645;1.6405;1.718
6.910000;-0.1517;0.5270;1.4914;1.589
6.921000;-0.0328;0.6890;1.2270;1.408
6.954000;0.0066;0.9766;0.9396;1.355
6.955000;0.0085;1.2439;0.5835;1.374
6.956000;0.0087;1.3231;0.3247;1.362
6.961000;0.1324;1.3120;0.3424;1.362
6.971000;0.3851;1.1649;0.8188;1.475
6.983000;0.6365;0.9582;1.7011;2.054
7.000000;0.8614;0.4391;2.9723;3.126
7.010000;0.7662;0.1449;3.3336;3.424
7.021000;0.5261;-0.2117;3.7524;3.795
7.060000;0.0946;-0.7039;3.8910;3.955
7.062000;-0.4778;-1.1577;3.5975;3.809
7.063000;-1.1058;-1.5590;3.1159;3.655
7.065000;-1.5697;-1.8365;2.3517;3.372
7.070000;-1.7728;-1.9125;1.3526;2.938
7.082000;-1.8038;-1.7345;0.4453;2.542
7.090000;-1.6580;-1.4285;-0.1892;2.197
7.101000;-1.3431;-1.2169;-0.3984;1.856
7.110000;-0.8643;-1.0676;-0.2970;1.405
7.121000;-0.3699;-0.8977;-0.1442;0.982
7.162000;0.0524;-0.7114;-0.0820;0.718
7.165000;0.4022;-0.5344;-0.2898;0.729
7.166000;0.8612;-0.3569;-0.9029;1.298
7.167000;0.8560;-0.3565;-1.0220;1.380
7.170000;0.7647;-0.3505;-1.2869;1.537
7.183000;0.5684;-0.3154;-1.5476;1.679
7.190000;0.2729;-0.3828;-1.6061;1.674
7.201000;-0.0011;-0.4689;-1.6786;1.743
7.210000;-0.2142;-0.5781;-1.6978;1.806
7.221000;-0.3200;-0.6265;-1.7195;1.858
7.254000;-0.2742;-0.5893;-1.7886;1.903
7.255000;-0.1741;-0.4380;-1.6531;1.719
7.257000;-0.0631;-0.2167;-1.5978;1.614
7.260000;0.0879;0.0255;-1.8699;1.872
7.271000;0.1561;0.1978;-2.1697;2.184
7.284000;0.2350;0.3186;-2.3766;2.409
7.290000;0.2811;0.3754;-2.5449;2.588
7.301000;0.2981;0.3976;-2.4660;2.516
7.310000;0.2128;0.2984;-2.1037;2.135
7.320000;0.0496;0.1759;-1.7067;1.716
7.355000;-0.0434;0.1132;-1.2638;1.270
7.357000;-0.1814;0.1087;-0.9120;0.936
7.358000;-0.4771;-0.0434;-0.3718;0.606
7.361000;-1.0696;-0.1561;-0.5068;1.194
7.371000;-0.7697;0.9017;-0.3470;1.235
7.383000;-0.7610;1.1678;0.0159;1.394
7.390000;0.8561;1.0593;-0.1403;1.369
7.401000;0.1959;1.0525;-0.1969;1.089
7.410000;-0.8609;1.1092;0.0449;1.405
7.421000;-1.2337;1.0483;0.2116;1.633
7.456000;-1.1403;0.8670;0.4331;1.497
7.457000;-1.0742;0.6905;0.7138;1.463
7.458000;-1.1265;0.7347;1.0317;1.695
7.461000;-1.1084;0.8252;1.1705;1.811
7.470000;-0.9891;0.8321;1.1773;1.748
7.481000;-0.7791;0.6987;1.0800;1.504
7.491000;-0.6681;0.7866;1.4627;1.790
7.503000;-0.3821;0.9664;1.8240;2.099
7.510000;-0.0171;1.0965;2.0423;2.318
7.521000;0.1952;1.2183;2.1983;2.521
7.553000;0.1638;1.4112;2.3216;2.722
7.555000;0.1657;1.6448;2.0334;2.621
7.557000;0.3390;1.7345;1.4522;2.287
7.561000;0.5271;1.6160;1.2350;2.101
7.571000;0.5659;1.3929;1.4541;2.092
7.581000;0.4820;1.2614;1.8345;2.278
7.590000;0.4684;1.0761;1.6928;2.060
7.601000;0.4847;0.8075;1.3069;1.611
7.610000;0.5559;0.5239;0.9774;1.240
7.621000;0.6415;0.0961;0.8560;1.074
7.663000;0.6875;-0.5224;1.2015;1.480
7.665000;0.6271;-1.2207;2.2848;2.665
7.666000;0.5651;-1.6880;3.4718;3.901
7.669000;0.4281;-1.9953;4.3223;4.780
7.671000;0.3498;-2.1184;4.7381;5.202
7.681000;0.4277;-2.1208;4.3166;4.828
7.691000;0.5899;-1.9258;3.0111;3.623
7.701000;0.6432;-1.5757;1.3167;2.152
7.710000;0.6201;-1.1850;-0.2844;1.367
7.721000;0.6027;-0.8485;-1.5746;1.887
7.731000;0.5245;-0.5978;-2.5080;2.631
7.757000;0.4353;-0.3867;-3.0897;3.144
7.759000;0.3311;-0.2226;-3.2829;3.307
7.762000;0.2721;-0.1383;-2.9632;2.979
7.771000;0.1977;-0.1743;-2.3360;2.351
7.781000;0.1361;-0.2625;-1.5778;1.605
7.790000;-0.0338;-0.3738;-1.1584;1.218
7.801000;-0.2559;-0.4044;-0.7501;0.890
7.810000;-0.7198;-0.4083;-0.3750;0.909
7.822000;-0.9585;-0.4255;-0.4893;1.157
7.831000;-1.0982;-0.3272;-0.7938;1.394
7.861000;-1.0519;-0.1668;-1.1201;1.546
7.862000;-0.8584;-0.0081;-1.3277;1.581
7.863000;-0.6087;0.1483;-1.3898;1.524
7.871000;-0.3666;0.2748;-1.4098;1.482
7.882000;-0.1234;0.3892;-1.4099;1.468
7.890000;0.0871;0.5124;-1.3335;1.431
7.901000;0.2858;0.6492;-1.2303;1.420
7.910000;0.4567;0.7968;-1.0948;1.429
7.923000;0.5686;0.9291;-0.9940;1.475
7.968000;0.6046;1.0509;-1.0144;1.581
7.969000;0.6024;1.1445;-1.0907;1.692
7.970000;0.5559;1.1238;-1.2303;1.757
7.971000;0.4222;0.9873;-1.2611;1.656
7.973000;0.1973;0.7958;-1.2539;1.498
7.981000;-0.0546;0.6264;-1.1900;1.346
7.990000;-0.2647;0.5262;-1.0144;1.173
8.003000;-0.3115;0.4025;-0.7630;0.917
8.010000;-0.2238;0.4267;-0.4524;0.661
8.020000;-0.0948;0.5378;-0.1358;0.563
8.030000;-0.0188;0.6546;0.0520;0.657
8.042000;-0.0873;0.7073;0.0750;0.717
8.083000;-0.1126;0.7449;-0.0429;0.755
8.085000;-0.0092;0.7838;-0.1615;0.800
8.085000;0.1928;0.8132;-0.1369;0.847
8.087000;0.4472;0.8259;0.0586;0.941
8.090000;0.6884;0.8059;0.3775;1.125
8.101000;0.8597;0.6887;0.7755;1.347
8.111000;0.9386;0.5551;1.4204;1.791
8.121000;0.7908;0.4528;2.1675;2.351
8.131000;0.5238;0.3535;2.5480;2.625
8.166000;0.4179;0.3000;1.5260;1.610
8.167000;0.8300;0.3701;1.1943;1.501
8.169000;0.8061;0.4589;1.0876;1.429
8.171000;0.6601;0.5912;0.8857;1.253
8.181000;0.4628;0.6020;0.4615;0.889
8.190000;0.4725;0.5541;0.6479;0.975
8.201000;0.4399;0.3183;0.9839;1.124
8.210000;0.4107;0.1104;1.6833;1.736
8.220000;0.3212;-0.1017;2.2659;2.291
8.231000;0.2682;-0.3215;2.5471;2.581
8.241000;0.1720;-0.5866;2.6011;2.672
8.269000;-0.0258;-0.8238;2.6372;2.763
8.271000;-0.3741;-1.1226;2.6683;2.919
8.273000;-0.8538;-1.4375;2.5748;3.070
8.280000;-1.2930;-1.7443;2.0869;3.012
8.291000;-1.6396;-1.9224;1.2939;2.839
8.301000;-1.7442;-1.8704;0.5578;2.618
8.310000;-1.6267;-1.7415;-0.0038;2.383
8.321000;-1.3223;-1.5876;-0.3653;2.098
8.331000;-0.8577;-1.3959;-0.3233;1.670
8.342000;-0.3769;-1.2116;-0.2082;1.286
8.384000;-0.0184;-1.0051;-0.1239;1.013
8.386000;0.2300;-0.8555;-0.0450;0.887
8.387000;0.3009;-0.8981;-0.0142;0.947
8.388000;0.2040;-1.1746;-0.0681;1.194
8.391000;-0.0800;-1.5811;-0.2096;1.597
8.401000;-0.5034;-1.9818;-0.2459;2.059
8.411000;-0.8376;-2.2501;-0.0562;2.402
8.421000;-0.9733;-2.3651;0.2509;2.570
8.430000;-0.9792;-2.3718;0.6471;2.646
8.442000;-0.8505;-2.1780;0.7755;2.463
8.472000;-0.6175;-1.7652;0.6064;1.966
8.473000;-0.3011;-0.8977;-0.5269;1.084
8.474000;-0.2912;-0.8886;-1.1677;1.496
8.480000;-0.3429;-0.4848;-1.6994;1.800
8.491000;-0.4329;-0.4270;-2.1027;2.189
8.502000;-0.5163;-0.4091;-2.3503;2.441
8.510000;-0.5694;-0.3576;-2.3012;2.397
8.523000;-0.5130;-0.2974;-1.9744;2.062
8.531000;-0.3146;-0.1712;-1.4921;1.534
8.542000;-0.0253;-0.0012;-1.1453;1.146
8.591000;0.2035;0.2064;-0.9543;0.997
8.593000;0.4167;0.4174;-0.7754;0.974
8.594000;0.6133;0.5881;-0.7526;1.135
8.595000;0.7652;0.7256;-0.8711;1.368
8.596000;0.8313;0.8403;-1.0283;1.567
8.602000;0.6756;0.8978;-1.2398;1.673
8.611000;0.3888;0.8605;-1.3945;1.684
8.621000;0.1068;0.7416;-1.3683;1.560
8.631000;-0.0867;0.6052;-1.1661;1.317
8.642000;-0.1668;0.5651;-1.0593;1.212
8.695000;-0.1955;0.6896;-1.0850;1.300
8.697000;-0.1389;0.9692;-1.1035;1.475
8.698000;0.0125;1.1807;-1.0256;1.564
8.700000;0.1611;1.3846;-0.7459;1.581
8.701000;0.2758;1.5105;-0.5409;1.628
8.702000;0.3935;1.5297;-0.3645;1.621
8.711000;0.4381;1.4271;-0.1251;1.498
8.724000;0.4675;1.2740;0.2070;1.373
8.730000;0.4326;1.0134;0.5654;1.238
8.764000;0.2616;0.8371;1.1048;1.411
8.768000;0.0233;0.7647;1.7488;1.909
8.769000;-0.1043;0.7978;2.2095;2.351
8.771000;-0.0637;0.8993;2.4028;2.566
8.780000;0.1033;1.1168;2.2696;2.532
8.791000;0.2041;1.2918;2.1256;2.496
8.802000;0.3388;1.4385;1.7711;2.307
8.810000;0.5936;0.9927;0.9147;1.475
8.821000;0.5511;0.3858;1.3114;1.474
8.830000;0.3208;-0.4063;2.2442;2.303
8.841000;0.3119;-1.0175;3.6574;3.809
8.884000;0.2810;-1.5395;4.6731;4.928
8.887000;0.3854;-1.7257;5.4446;5.725
8.888000;0.6141;-1.6804;5.6841;5.959
8.890000;0.9715;-1.4367;5.2844;5.562
8.891000;1.2236;-1.0921;4.1312;4.445
8.901000;1.2398;-0.7597;2.8569;3.206
8.910000;1.1970;-0.6821;1.6668;2.162
8.920000;1.1139;-0.8283;0.4150;1.449
8.930000;0.8534;-0.9953;-0.5138;1.408
8.941000;0.4939;-1.1361;-1.0330;1.613
8.978000;0.1852;-1.2527;-1.3200;1.829
8.979000;-0.0214;-1.3150;-1.4959;1.992
8.981000;-0.1351;-1.2758;-1.4750;1.955
8.984000;-0.1786;-1.1156;-1.3096;1.730
8.991000;-0.1884;-0.9200;-1.1207;1.462
9.003000;-0.2241;-0.7213;-0.9591;1.221
9.028000;-0.2829;-0.5258;-0.8289;1.022
9.029000;-0.3464;-0.3259;-0.8014;0.932
9.031000;-0.3337;-0.1063;-0.8833;0.950
9.042000;-0.3059;0.1000;-0.9912;1.042
9.082000;-0.1771;0.3425;-1.1557;1.218
9.084000;-0.0311;0.5632;-1.4524;1.558
9.084000;0.1007;0.7740;-1.6774;1.850
9.085000;0.2444;0.9642;-1.8833;2.130
9.091000;0.3783;1.0870;-1.9504;2.265
9.102000;0.5567;1.1898;-1.8701;2.285
9.110000;0.6844;1.2471;-1.6857;2.206
9.122000;0.7573;1.2632;-1.4409;2.060
9.130000;0.7199;1.2016;-1.2183;1.856
9.160000;0.3917;0.9543;-1.2502;1.621
9.162000;0.1881;0.8332;-1.4918;1.719
9.162000;0.0270;0.7030;-1.8406;1.970
9.171000;-0.0576;0.6026;-2.1052;2.190
9.181000;-0.0615;0.5165;-2.1914;2.252
9.191000;-0.0129;0.4518;-2.1518;2.199
9.203000;0.0243;0.4611;-1.8979;1.953
9.211000;0.0396;0.4878;-1.4393;1.520
9.222000;0.2093;0.5398;-0.9770;1.136
9.231000;0.4383;0.6742;-0.5748;0.988
9.245000;0.5890;0.7495;-0.2910;0.997
9.296000;0.5209;0.8017;-0.1310;0.965
9.297000;0.5347;0.9157;-0.0925;1.064
9.298000;0.5265;0.9585;-0.0506;1.095
9.301000;0.5470;0.9915;-0.1319;1.140
9.301000;0.6227;1.0563;-0.1178;1.232
9.311000;0.7394;1.0488;0.1282;1.290
9.323000;0.7538;0.8496;0.4559;1.224
9.330000;0.7120;0.7846;1.1529;1.566
9.367000;0.5703;0.8311;1.7471;2.017
9.369000;0.4725;0.9344;1.8144;2.095
9.369000;0.5494;0.9332;1.7008;2.016
9.371000;0.5907;0.6880;1.7023;1.929
9.381000;0.5942;0.6851;1.6172;1.854
9.391000;0.2646;0.7910;1.3302;1.570
9.403000;-0.0045;0.8666;0.7693;1.159
9.411000;0.0087;0.9137;0.4372;1.013
9.421000;0.1519;0.7941;0.6847;1.060
9.430000;0.2243;0.5778;1.1961;1.347
9.441000;0.1598;0.2208;1.9676;1.986
9.484000;0.0661;-0.1669;2.6568;2.663
9.486000;-0.0989;-0.5076;3.2772;3.318
9.488000;-0.7774;-1.2124;3.6467;3.921
9.489000;-1.2243;-1.5215;3.3549;3.882
9.491000;-1.6840;-1.7951;2.7968;3.726
9.503000;-1.9889;-1.8092;1.8382;3.257
9.511000;-2.0596;-1.6880;0.6805;2.749
9.521000;-1.9605;-1.4902;-0.3824;2.492
9.530000;-1.7029;-1.3227;-1.2373;2.486
9.541000;-1.3457;-1.1417;-1.7962;2.518
9.581000;-0.8840;-0.9323;-2.0942;2.457
9.583000;-0.4237;-0.7113;-2.2284;2.377
9.585000;-0.0261;-0.6015;-2.2583;2.337
9.586000;0.1526;-0.6477;-2.0636;2.168
9.590000;0.1483;-0.8196;-1.5327;1.744
9.601000;0.0506;-1.0788;-0.8855;1.397
9.611000;-0.0678;-1.3587;-0.2955;1.392
9.627000;-0.1899;-1.5378;0.0715;1.551
9.631000;-0.3035;-1.6034;0.2587;1.652
9.678000;-0.3493;-1.5160;0.2451;1.575
9.681000;-0.3142;-1.3561;0.2438;1.413
9.682000;-0.2840;-1.2298;0.2568;1.288
9.683000;-0.3338;-1.1328;0.0889;1.184
9.685000;-0.4423;-1.0720;-0.2022;1.177
9.691000;-0.6211;-0.9805;-0.4098;1.231
9.703000;-0.7569;-0.8405;-0.6174;1.289
9.710000;-0.7591;-0.6226;-0.8389;1.291
9.721000;-0.6288;-0.3274;-1.0912;1.301
9.730000;-0.4191;-0.0418;-1.3417;1.406
9.741000;-0.2268;0.2611;-1.5921;1.629
9.784000;-0.0807;0.4753;-1.7498;1.815
9.786000;0.0697;0.6429;-1.9590;2.063
9.787000;0.2007;0.8091;-2.0921;2.252
9.789000;0.2834;0.9183;-2.0924;2.303
9.791000;0.2714;0.9755;-1.9730;2.218
9.801000;0.2370;0.9425;-1.2074;1.550
9.811000;0.2313;0.8508;-0.8757;1.243
9.825000;0.2117;0.9163;-0.5549;1.092
9.830000;0.1501;0.9356;-0.4066;1.031
9.865000;0.0530;0.9695;-0.2998;1.016
9.866000;-0.1106;0.9542;-0.3601;1.026
9.868000;-0.3142;0.9330;-0.4229;1.071
9.871000;-0.4323;0.9186;-0.3505;1.074
9.880000;-0.3854;0.9838;-0.0471;1.058
9.890000;-0.2462;1.0195;0.1311;1.057
9.901000;-0.1290;1.0252;0.2389;1.061
9.910000;-0.0647;1.0195;0.5398;1.155
9.923000;0.0139;0.9314;0.7635;1.204
9.930000;0.1827;0.8487;1.1191;1.416
9.965000;0.2714;0.7652;1.3700;1.593
9.966000;0.2680;0.8476;1.5690;1.803
9.967000;0.1096;1.0009;1.6496;1.933
9.971000;0.0499;1.0454;1.6783;1.978
9.980000;0.2460;1.0067;1.4945;1.819
9.990000;0.4640;0.9230;1.3377;1.690
10.002000;0.4600;0.9405;1.5398;1.862
10.011000;0.3678;1.0243;1.7613;2.070
10.027000;0.5420;1.0772;1.7390;2.116
10.032000;0.8891;0.9468;1.8150;2.232
10.065000;1.2451;0.6311;2.2097;2.614
10.067000;1.4138;0.0661;2.7662;3.107
10.068000;1.3028;-0.6121;3.3881;3.681
10.071000;0.9557;-1.1539;3.7732;4.060
10.080000;0.6108;-1.4793;3.8082;4.131
10.091000;0.4366;-1.5981;3.8149;4.159
10.101000;0.5986;-1.4983;3.8883;4.210
10.111000;0.9085;-1.2941;3.7929;4.109
10.128000;1.1575;-1.1625;3.3795;3.757
10.133000;1.0191;-1.0885;1.4929;2.110
10.175000;0.6747;-0.9792;0.4410;1.268
10.177000;0.5037;-0.9121;-0.5186;1.164
10.178000;0.2550;-0.8547;-1.2714;1.553
10.180000;-0.0136;-0.8417;-1.8457;2.029
10.182000;-0.1643;-0.8137;-2.0820;2.241
10.191000;-0.1612;-0.7294;-1.8687;2.012
10.202000;0.0344;-0.5253;-1.3594;1.458
10.211000;0.2736;-0.2810;-0.7824;0.875
10.224000;0.3391;-0.1358;-0.4017;0.543
10.231000;0.2382;-0.0818;-0.3355;0.420
10.272000;0.0831;-0.0360;-0.3102;0.323
10.274000;-0.0536;-0.0524;-0.4496;0.456
10.274000;-0.1093;-0.0334;-0.7916;0.800
10.275000;-0.1514;-0.0065;-1.1749;1.185
10.280000;-0.1880;0.0154;-1.5022;1.514
10.291000;-0.0954;0.1033;-1.7164;1.722
10.301000;0.0819;0.2350;-1.7664;1.784
10.311000;0.2481;0.3951;-1.6559;1.720
10.325000;0.3900;0.5130;-1.4662;1.602
10.330000;0.5292;0.5865;-1.2712;1.497
10.363000;0.5931;0.6248;-1.1488;1.436
10.365000;0.5521;0.5914;-1.0972;1.363
10.366000;0.3894;0.5149;-1.2682;1.423
10.374000;0.1575;0.3929;-1.6198;1.674
10.380000;-0.0417;0.2643;-1.9140;1.933
10.391000;-0.1834;0.1383;-2.1385;2.151
10.401000;-0.2573;0.1050;-2.2995;2.316
10.411000;-0.2854;0.1907;-2.3303;2.355
10.425000;-0.2985;0.3109;-2.0490;2.094
10.430000;-0.2167;0.3985;-1.4784;1.546
10.475000;-0.1424;0.3887;-0.8644;0.958
10.476000;-0.0396;0.5083;-0.3199;0.602
10.477000;0.0382;0.6823;0.0321;0.684
10.478000;0.1228;1.1591;-0.3809;1.226
10.481000;0.1348;1.3223;-0.7171;1.510
10.491000;0.1381;1.3826;-0.8213;1.614
10.500000;0.2098;1.4273;-0.7199;1.612
10.511000;0.3526;1.4052;-0.3541;1.491
10.525000;0.4791;1.2612;0.1775;1.361
10.530000;0.5603;1.0041;0.7456;1.370
10.563000;0.5046;0.9592;1.5790;1.915
10.564000;0.2917;1.0438;2.2015;2.454
10.565000;0.2244;1.0643;2.2643;2.512
10.574000;0.3788;1.0369;2.0382;2.318
10.580000;0.5677;1.0504;1.9846;2.316
10.591000;0.4570;1.1572;1.9433;2.307
10.601000;0.1944;1.2616;1.6072;2.052
10.611000;0.1734;1.4040;1.0337;1.752
10.625000;0.2533;1.3584;0.8152;1.604
10.630000;0.3044;1.2177;0.7732;1.474
10.665000;0.2848;0.8649;0.8681;1.258
10.666000;0.3472;0.3538;1.3974;1.483
10.667000;0.5039;-0.1422;2.0186;2.085
10.675000;0.5076;-0.4655;2.5001;2.593
10.680000;0.2719;-0.7102;3.0395;3.133
10.690000;-0.0630;-1.0382;3.2190;3.383
10.700000;-0.5174;-1.4086;2.9138;3.278
10.710000;-1.0044;-1.6578;2.1095;2.865
10.727000;-1.3766;-1.7682;0.8207;2.386
10.764000;-1.5551;-1.6614;-0.5406;2.339
10.767000;-1.4825;-1.3817;-1.6670;2.624
10.768000;-1.1989;-1.1408;-2.2869;2.823
10.769000;-0.7841;-0.9680;-2.6470;2.925
10.773000;-0.3880;-0.8399;-2.6289;2.787
10.781000;-0.0899;-0.7554;-2.2744;2.398
10.791000;0.4048;-0.7184;-1.1473;1.413
10.800000;0.4874;-0.9105;-0.6952;1.245
10.810000;0.4551;-1.0479;-0.3473;1.194
10.827000;0.3346;-1.1065;-0.0719;1.158
10.832000;0.1756;-1.1886;0.0320;1.202
10.875000;-0.0754;-1.2560;0.0496;1.259
10.877000;-0.3769;-1.3190;0.0715;1.374
10.878000;-0.6230;-1.3991;0.0547;1.533
10.879000;-0.8225;-1.4209;0.0398;1.642
10.881000;-1.0158;-1.3513;0.0414;1.691
10.891000;-1.1177;-1.2166;-0.0765;1.654
10.901000;-1.0689;-1.0161;-0.3521;1.516
10.911000;-0.9318;-0.7795;-0.6529;1.379
10.927000;-0.6928;-0.5393;-0.9795;1.315
10.931000;-0.4119;-0.2508;-1.3548;1.438
10.970000;-0.1775;0.0482;-1.6458;1.656
10.972000;0.0135;0.2898;-1.8046;1.828
10.973000;0.1212;0.4919;-1.8515;1.920
10.974000;0.1425;0.5944;-1.7950;1.896
10.981000;0.1307;0.6468;-1.6032;1.734
10.991000;0.1360;0.6563;-1.3388;1.497
11.000000;0.2180;0.7230;-1.2041;1.421
11.011000;0.3098;0.8235;-1.1109;1.417
11.026000;0.3971;0.9806;-0.9450;1.419
11.032000;0.4704;1.1521;-0.7619;1.459
11.072000;0.4376;1.2975;-0.6488;1.515
11.073000;0.2941;1.3782;-0.6029;1.533
11.074000;0.0699;1.3731;-0.5317;1.474
11.074000;-0.1623;1.2690;-0.4565;1.358
11.080000;-0.4079;1.1623;-0.2932;1.266
11.091000;-0.6259;1.0624;-0.1583;1.243
11.101000;-0.7901;0.9622;0.0511;1.246
11.111000;-0.8482;0.8476;0.3510;1.249
11.127000;-0.4649;0.8603;1.2063;1.553
11.131000;-0.1764;0.9796;1.7796;2.039
11.181000;0.0521;1.1147;2.3174;2.572
11.183000;0.1358;1.3024;2.7635;3.058
11.185000;0.1257;1.4977;2.9417;3.303
11.186000;0.1747;1.5849;2.7180;3.151
11.188000;0.3482;1.5365;2.3750;2.850
11.192000;0.6104;1.5348;1.9674;2.569
11.200000;0.8143;1.5605;1.8905;2.583
11.211000;0.9501;1.5957;1.8775;2.641
11.226000;1.1096;1.5133;1.7112;2.540
11.230000;1.3117;1.2110;1.5503;2.364
11.281000;1.4846;0.6616;1.6412;2.310
11.283000;1.4633;0.0098;1.8884;2.389
11.284000;1.1770;-0.6496;2.1976;2.576
11.285000;0.7965;-1.1820;2.6013;2.966
11.287000;0.3809;-1.6459;3.0998;3.530
11.293000;0.1235;-2.0073;3.5717;4.099
11.301000;0.1458;-2.2203;3.7768;4.384
11.310000;0.3015;-2.2323;3.5821;4.232
11.327000;0.4691;-2.0251;2.7386;3.438
11.331000;0.6557;-1.6195;1.3189;2.189
11.383000;0.6975;-1.2225;-0.1701;1.418
11.385000;0.6576;-0.9160;-1.3022;1.723
11.385000;0.5545;-0.7192;-2.1191;2.305
11.388000;0.3467;-0.7059;-2.3332;2.462
11.389000;0.1340;-0.7195;-2.0342;2.162
11.393000;0.0627;-0.7310;-1.4956;1.666
11.400000;0.0656;-0.6278;-0.9811;1.167
11.410000;0.0443;-0.4866;-0.5076;0.705
11.427000;0.0155;-0.3183;-0.4536;0.554
11.432000;-0.0454;-0.0889;-0.6842;0.691
11.477000;-0.0772;0.1386;-1.1323;1.143
11.478000;-0.1669;0.2744;-1.7324;1.762
11.480000;-0.5420;0.3345;-2.3107;2.397
11.481000;-0.5918;0.2014;-2.3143;2.397
11.482000;-0.5453;0.1195;-2.0587;2.133
11.491000;-0.4468;0.1244;-1.7273;1.788
11.501000;-0.2371;0.1591;-1.2950;1.326
11.511000;0.0275;0.1897;-0.9067;0.927
11.526000;0.2784;0.3046;-0.8832;0.975
11.530000;0.3953;0.5116;-1.2292;1.389
11.563000;0.4270;0.7060;-1.7462;1.931
11.565000;0.4575;0.7712;-2.1880;2.365
11.566000;0.4191;0.6955;-2.4276;2.560
11.571000;0.2311;0.5109;-2.3026;2.370
11.581000;-0.0177;0.2500;-1.9211;1.937
11.591000;-0.2760;-0.0048;-1.4004;1.427
11.600000;-0.4425;-0.1844;-0.9494;1.064
11.610000;-0.5390;-0.2911;-0.6059;0.862
11.621000;-0.5072;-0.2226;-0.2506;0.608
11.630000;-0.2927;0.0078;0.1906;0.349
11.673000;0.0350;0.3167;0.4637;0.563
11.674000;0.3397;0.6479;0.6165;0.957
11.675000;0.5520;0.9672;0.5154;1.227
11.676000;0.7316;1.1233;0.2193;1.358
11.681000;0.8418;1.2438;0.0265;1.502
11.690000;0.8774;1.2811;-0.1304;1.558
11.700000;0.9001;1.2566;-0.1706;1.555
11.710000;0.8911;1.1743;0.0692;1.476
11.721000;0.8223;1.0321;0.5886;1.445
11.732000;0.6376;0.9248;1.0296;1.524
11.777000;0.4608;0.9538;1.1774;1.584
11.778000;0.4823;0.9424;0.9264;1.407
11.779000;0.6008;0.8713;0.7861;1.318
11.780000;0.5385;0.8601;0.7806;1.280
11.781000;0.3201;0.9115;0.6565;1.168
11.790000;0.0916;0.8665;0.8966;1.250
11.800000;-0.0833;0.3186;1.3151;1.356
11.811000;-0.2141;-0.2280;1.9187;1.944
11.827000;-0.4349;-0.8596;2.5959;2.769
11.833000;-0.6182;-1.3752;3.2034;3.540
11.890000;-0.7594;-1.7039;3.9934;4.408
11.892000;-0.7652;-1.6971;4.5973;4.960
11.893000;-0.7157;-1.6338;4.9445;5.256
11.894000;-0.6266;-1.3416;4.0952;4.355
11.895000;-0.6262;-0.8819;2.4088;2.641
11.895000;-0.7052;-0.4334;0.7595;1.123
11.901000;-0.7640;-0.1410;-0.6393;1.006
11.911000;-0.8071;0.0029;-1.7564;1.933
11.930000;-0.8901;0.0691;-2.4134;2.573
11.934000;-0.9143;0.0796;-2.6453;2.800
11.975000;-0.7629;0.1100;-2.5857;2.698
11.977000;-0.4709;0.1335;-2.0381;2.096
11.979000;-0.2174;0.0453;-1.1422;1.164
11.981000;-0.0644;-0.1850;-0.2575;0.323
11.982000;-0.0414;-0.4191;0.2390;0.484
11.990000;-0.1655;-0.6272;0.4381;0.783
12.000000;-0.3861;-0.8163;0.3810;0.980
12.010000;-0.6242;-0.9829;0.0778;1.167
12.021000;-0.8120;-1.1108;-0.3369;1.417
12.032000;-0.9222;-1.1665;-0.8247;1.700
12.067000;-1.0070;-1.1399;-1.2364;1.960
12.069000;-1.0561;-1.0821;-1.4848;2.119
12.070000;-1.0225;-0.9849;-1.7297;2.238
12.072000;-0.8772;-0.8205;-1.9317;2.275
12.081000;-0.6457;-0.5934;-1.9882;2.173
12.090000;-0.3552;-0.3068;-2.0262;2.080
12.141000;-0.1024;-0.0676;-2.0449;2.049
12.143000;0.1017;0.1491;-2.0960;2.104
12.143000;0.3794;0.6531;-2.2660;2.389
12.145000;0.4991;1.0170;-2.5198;2.763
12.151000;0.4020;1.0800;-2.4864;2.740
12.182000;0.3453;1.1132;-2.3139;2.591
12.183000;0.2539;1.1027;-1.9291;2.237
12.185000;0.1659;1.0691;-1.3605;1.738
12.193000;0.1683;1.0307;-0.7235;1.270
12.200000;0.1761;1.0252;-0.0199;1.040
12.211000;0.1342;1.0533;0.5235;1.184
12.227000;0.0177;1.1337;0.8258;1.403
12.231000;-0.1042;1.2167;0.9513;1.548
12.274000;-0.2152;1.2583;0.9642;1.600
12.276000;-0.2762;1.3003;0.9522;1.635
12.277000;-0.2727;1.3554;0.9987;1.706
12.278000;-0.2612;1.3311;0.9683;1.667
12.281000;-0.2344;1.2243;0.9626;1.575
12.290000;-0.2182;1.1134;1.3217;1.742
12.300000;-0.2223;1.0754;1.9716;2.257
12.311000;-0.1941;1.2892;2.6886;2.988
12.320000;-0.0048;1.5773;3.0810;3.461
12.332000;0.5441;1.6723;3.1323;3.592
12.366000;1.2601;1.7135;2.9932;3.672
12.368000;1.4730;1.6113;3.2916;3.950
12.369000;1.2271;1.5399;3.3028;3.845
12.371000;1.0122;1.2948;3.0245;3.442
12.381000;1.0879;0.9015;3.0194;3.334
12.391000;1.2883;0.3285;3.3336;3.589
12.400000;1.3193;-0.2316;3.4904;3.739
12.410000;1.1720;-0.6395;3.5030;3.749
12.421000;0.9600;-0.9569;3.7124;3.952
12.430000;0.8853;-1.2532;3.9180;4.208
12.494000;0.8829;-1.5360;3.9243;4.306
12.496000;0.8940;-1.7393;3.5702;4.071
12.497000;0.5729;-1.9036;1.6986;2.615
12.499000;0.4002;-1.7987;0.5223;1.915
12.500000;0.1813;-1.6894;-0.4982;1.771
12.502000;-0.0458;-1.5691;-1.3002;2.038
12.502000;-0.1610;-1.4555;-1.7741;2.300
12.510000;-0.1346;-1.3053;-2.0295;2.417
12.521000;-0.0680;-1.1160;-2.0778;2.360
12.531000;-0.0371;-0.9132;-1.8146;2.032
12.593000;0.0003;-0.7204;-1.4072;1.581
12.595000;-0.0450;-0.6279;-1.1157;1.281
12.596000;-0.1963;-0.6035;-1.1158;1.284
12.597000;-0.4623;-0.6218;-1.3497;1.556
12.598000;-0.6957;-0.6054;-1.7577;1.985
12.599000;-0.7882;-0.4770;-2.0559;2.253
12.601000;-0.7858;-0.3297;-2.3846;2.532
12.611000;-0.7213;-0.2409;-2.6691;2.775
12.621000;-0.6219;-0.1035;-2.8044;2.874
12.631000;-0.4596;0.1095;-2.8392;2.878
12.669000;-0.2983;0.2882;-2.6058;2.639
12.672000;-0.1963;0.4028;-2.3800;2.422
12.674000;-0.2383;0.4243;-2.3162;2.367
12.675000;-0.3467;0.4062;-2.2009;2.265
12.681000;-0.3975;0.3890;-2.0902;2.163
12.692000;-0.3299;0.4067;-2.0723;2.137
12.700000;-0.2962;0.3933;-1.9847;2.045
12.710000;-0.4076;0.3272;-1.7617;1.838
12.720000;-0.5776;0.2147;-1.3903;1.521
12.731000;-0.6350;0.1410;-1.0449;1.231
12.772000;-0.5746;0.2075;-0.7798;0.991
12.773000;-0.4620;0.3690;-0.4042;0.716
12.774000;-0.3697;0.5102;-0.0276;0.631
12.775000;-0.2749;0.5736;0.3818;0.742
12.781000;-0.1835;0.6767;0.7042;0.994
12.792000;0.1804;1.0633;0.9692;1.450
12.801000;0.4927;1.2054;1.1894;1.764
12.811000;0.7651;1.3400;1.4063;2.088
12.820000;0.9431;1.4135;1.5749;2.317
12.831000;1.0034;1.4019;1.7755;2.475
12.865000;0.9045;1.4246;2.0329;2.642
12.867000;0.6295;1.3944;2.0893;2.590
12.868000;0.3992;1.4050;1.8096;2.326
12.872000;0.3132;1.3563;1.4741;2.027
12.880000;0.2862;1.3368;1.4672;2.005
12.891000;0.1342;1.5307;1.7674;2.342
12.901000;-0.1925;1.6690;1.8284;2.483
12.910000;-0.2980;1.8676;1.4109;2.360
12.921000;-0.0195;1.9161;1.0120;2.167
12.931000;0.5332;1.7697;1.0852;2.143
12.988000;0.9076;1.4040;0.7056;1.815
12.990000;0.9763;0.8255;0.9397;1.587
12.991000;0.5633;0.0846;1.4988;1.603
12.992000;0.1383;-0.6076;2.1883;2.275
12.993000;-0.3063;-1.2665;2.7837;3.074
12.995000;-0.8391;-1.7903;3.1296;3.702
13.001000;-1.3261;-2.2234;2.9642;3.936
13.012000;-1.6816;-2.3340;2.0967;3.560
13.024000;-1.7690;-2.0439;0.7373;2.802
13.033000;-1.6414;-1.5078;-1.9361;2.952
13.050000;-0.9032;-0.5201;-2.6481;2.846
13.099000;-0.2713;-0.1989;-3.0756;3.094
13.101000;0.2688;-0.0462;-3.0902;3.102
13.102000;0.7286;-0.0218;-2.7608;2.855
13.103000;0.9815;-0.1984;-2.4775;2.672
13.105000;1.0111;-0.5430;-2.0510;2.350
13.112000;0.3742;-1.4542;-1.0769;1.848
13.120000;-0.1043;-1.8555;-0.8096;2.027
13.130000;-0.5436;-2.1697;-0.5988;2.316
13.145000;-0.8163;-2.3330;-0.4951;2.521
13.150000;-0.9129;-2.3132;-0.5017;2.537
13.192000;-0.9187;-2.0970;-0.5904;2.364
13.193000;-0.8967;-1.7544;-0.7373;2.104
13.194000;-0.8420;-1.4295;-1.0686;1.973
13.195000;-0.7620;-1.1068;-1.4885;2.005
13.200000;-0.7078;-0.8009;-1.8651;2.150
13.211000;-0.6059;-0.4930;-2.2801;2.410
13.220000;-0.5365;-0.2256;-2.5263;2.592
13.230000;-0.4272;0.0657;-2.4520;2.490
13.245000;-0.2684;0.3952;-2.2545;2.305
13.250000;-0.1440;0.7047;-1.9989;2.124
13.292000;-0.0930;0.9349;-1.6094;1.864
13.293000;-0.0837;1.0876;-1.3296;1.720
13.294000;-0.0697;1.1593;-1.0878;1.591
13.295000;-0.0040;1.2513;-0.8367;1.505
13.300000;0.2036;1.4071;-0.5353;1.519
13.310000;0.4821;1.5273;0.0177;1.602
13.320000;0.6010;1.5616;0.5338;1.756
13.330000;0.5126;1.4476;0.9098;1.785
13.365000;0.2563;1.2424;0.9743;1.600
13.367000;0.0420;1.1359;0.7612;1.368
13.368000;-0.0442;1.1263;0.5625;1.260
13.370000;-0.0752;1.1149;0.6695;1.303
13.385000;-0.0871;0.9548;0.9418;1.344
13.397000;-0.1123;0.9409;1.3482;1.648
13.400000;-0.2090;1.0670;1.6506;1.976
13.410000;-0.1875;1.2999;1.7924;2.222
13.420000;0.1884;1.5849;1.5813;2.247
13.430000;0.8511;1.5641;1.2761;2.191
13.446000;1.4281;1.3647;1.1315;2.276
13.451000;1.3144;0.8324;1.9227;2.473
13.482000;0.9059;0.0990;2.4268;2.592
13.484000;0.5068;-0.8540;3.4175;3.559
13.485000;0.2609;-1.7252;4.5237;4.849
13.495000;-0.0174;-2.2850;5.5154;5.970
13.501000;-0.1498;-2.3849;5.9060;6.371
13.510000;0.0854;-2.1464;5.4331;5.842
13.520000;0.5890;-1.7377;4.4652;4.827
13.530000;0.9876;-1.3844;3.3674;3.772
13.541000;1.0715;-1.2337;2.3965;2.901
13.550000;0.8908;-1.1627;1.4017;2.027
13.587000;0.6577;-1.0796;0.4223;1.333
13.588000;0.4075;-0.9841;-0.3967;1.137
13.589000;0.1576;-0.8788;-0.8746;1.250
13.591000;-0.0053;-0.7467;-1.0674;1.303
13.600000;-0.0560;-0.5238;-1.0103;1.139
13.611000;-0.0342;-0.2234;-0.7804;0.812
13.621000;0.0652;0.0508;-0.5450;0.551
13.630000;0.1142;0.2093;-0.4966;0.551
13.647000;0.1346;0.3972;-0.4935;0.648
13.651000;0.1040;0.5170;-0.6088;0.805
13.696000;0.0999;0.5393;-0.9561;1.102
13.698000;0.0143;0.5136;-1.4294;1.519
13.699000;-0.1114;0.4854;-1.8933;1.958
13.700000;-0.2072;0.4367;-2.3219;2.372
13.702000;-0.1770;0.4458;-2.6743;2.717
13.711000;0.0225;0.5271;-2.7562;2.806
13.721000;0.3442;0.6494;-2.6985;2.797
13.731000;0.6761;0.7494;-2.6348;2.822
13.748000;0.9035;0.8169;-2.5559;2.831
13.751000;0.9747;0.8176;-2.5069;2.811
13.792000;0.9171;0.7116;-2.5327;2.786
13.794000;0.7250;0.5343;-2.6302;2.780
13.795000;0.3983;0.3483;-3.0460;3.092
13.796000;-0.2468;-0.0070;-3.2053;3.215
13.800000;-0.4413;-0.1703;-3.1211;3.157
13.810000;-0.5295;-0.2624;-2.7621;2.825
13.820000;-0.4835;-0.2237;-2.0685;2.136
13.831000;-0.2599;0.0046;-1.0711;1.102
13.841000;0.0903;0.3776;-0.1979;0.436
13.851000;0.3914;0.8060;0.2321;0.926
13.892000;0.5893;1.0981;0.5968;1.382
13.894000;0.7427;1.3051;0.8281;1.715
13.895000;0.8053;1.4493;0.9264;1.899
13.895000;0.7309;1.5404;1.0336;1.994
13.901000;0.6565;1.5441;1.2412;2.087
13.911000;0.6950;1.5040;1.4351;2.192
13.920000;0.8264;1.3676;1.6614;2.305
13.931000;0.8388;1.1099;2.0670;2.492
13.941000;0.3629;0.9392;2.6866;2.869
13.952000;-0.3682;0.9589;2.6968;2.886
13.999000;-0.6980;1.0063;1.8614;2.228
14.001000;-0.3993;1.1448;1.0566;1.608
14.002000;-0.1143;1.3723;0.9011;1.646
14.003000;-0.2931;1.6469;1.3271;2.135
14.005000;-0.4495;1.8611;1.4840;2.422
14.011000;-0.0536;1.8482;1.5716;2.427
14.021000;0.4561;1.6293;2.0276;2.641
14.030000;0.7131;1.2765;2.3817;2.795
14.041000;0.7206;0.8289;2.6227;2.843
14.051000;0.6723;0.3165;3.0436;3.133
14.090000;0.5565;-0.1910;3.3062;3.358
14.092000;0.2462;-0.6458;3.0921;3.168
14.093000;-0.2817;-0.9944;2.3678;2.584
14.094000;-0.8313;-1.2553;1.3103;1.996
14.100000;-1.2242;-1.4062;0.2417;1.880
14.110000;-1.3288;-1.3484;-1.4419;2.380
14.120000;-1.1798;-1.0248;-2.0027;2.540
14.131000;-0.9924;-1.0233;-2.1407;2.572
14.141000;-0.6837;-1.2254;-1.8032;2.285
14.152000;-0.4421;-1.4815;-1.2578;1.993
14.209000;-0.4699;-1.7272;-0.7058;1.924
14.212000;-0.6765;-1.9089;-0.3229;2.051
14.213000;-0.9216;-2.1687;0.0505;2.357
14.214000;-1.0878;-2.4502;0.2456;2.692
14.215000;-1.1485;-2.5149;0.1728;2.770
14.217000;-1.0888;-2.3505;-0.2114;2.599
14.222000;-0.8780;-2.0500;-0.6874;2.334
14.230000;-0.5848;-1.6868;-1.1015;2.098
14.241000;-0.2915;-1.3145;-1.3964;1.940
14.251000;-0.0439;-0.9275;-1.5810;1.834
14.291000;0.1499;-0.6120;-1.7799;1.888
14.293000;0.2261;-0.3572;-1.9833;2.028
14.294000;0.2244;-0.1075;-2.0848;2.100
14.295000;0.2073;0.1000;-2.1458;2.158
14.300000;0.1821;0.2517;-2.2164;2.238
14.312000;0.1110;0.3668;-2.2205;2.253
14.322000;0.0341;0.4733;-2.1944;2.245
14.331000;-0.0327;0.5617;-2.1676;2.239
14.341000;-0.0535;0.6643;-2.0337;2.140
14.351000;-0.0469;0.7456;-1.6906;1.848
14.399000;-0.0399;0.7572;-1.2176;1.434
14.400000;-0.0845;0.7017;-0.8255;1.087
14.401000;-0.1686;0.6373;-0.5493;0.858
14.402000;-0.3255;0.5516;-0.1959;0.670
14.403000;-0.4725;0.4817;0.0962;0.682
14.411000;-0.6053;0.5057;0.3657;0.869
14.421000;-0.6115;0.6171;0.6593;1.091
14.430000;-0.3826;0.8535;0.8169;1.242
14.441000;-0.0634;1.2039;0.8057;1.450
14.452000;0.2580;1.8506;0.7524;2.014
14.499000;0.1567;1.9714;0.8189;2.141
14.502000;0.0054;2.0742;0.7348;2.200
14.503000;-0.0442;2.0505;0.5628;2.127
14.504000;0.1547;1.9585;0.1537;1.971
14.504000;0.4179;1.8117;-0.1972;1.870
14.512000;0.4322;1.6653;-0.3954;1.765
14.521000;0.3446;1.4394;0.3676;1.525
14.530000;0.2666;1.1503;1.3827;1.818
14.541000;0.5336;0.7576;2.9870;3.127
14.550000;1.1168;0.3067;4.9699;5.103
14.594000;1.7629;-0.0242;6.9277;7.149
14.596000;2.2593;-0.3486;8.1413;8.456
14.598000;2.5450;-0.5373;8.4191;8.812
14.600000;2.6822;-0.5558;7.4256;7.915
14.602000;2.6453;-0.6412;5.6712;6.291
14.611000;2.4979;-0.8855;3.6813;4.536
14.620000;2.2717;-1.2768;2.0691;3.327
14.630000;1.8970;-1.6129;1.0783;2.713
14.641000;1.4143;-1.8500;0.8363;2.474
14.651000;0.9498;-1.9311;0.8329;2.308
14.702000;0.5233;-1.9692;0.9663;2.255
14.704000;0.2149;-1.8614;0.9615;2.106
14.705000;0.0245;-1.5425;0.6918;1.691
14.707000;-0.1578;-1.1200;0.2647;1.162
14.708000;-0.2282;-0.6734;-0.3689;0.801
14.714000;-0.2329;-0.3089;-1.1018;1.168
14.721000;-0.2740;-0.1086;-1.7950;1.819
14.730000;-0.3351;-0.0337;-2.3903;2.414
14.741000;-0.3465;-0.0935;-2.8873;2.910
14.750000;-0.4072;-0.1893;-3.1771;3.209
14.808000;-0.4756;-0.2377;-3.1348;3.180
14.810000;-0.3071;-0.1267;-2.7350;2.755
14.812000;-0.0726;0.0616;-2.3956;2.398
14.813000;0.1193;0.2499;-2.1600;2.178
14.814000;0.2329;0.4187;-2.1781;2.230
14.815000;0.2163;0.4886;-2.4006;2.459
14.820000;0.1101;0.4880;-2.7256;2.771
14.831000;-0.0855;0.3905;-2.9666;2.993
14.841000;-0.2607;0.2840;-3.1701;3.193
14.851000;-0.3891;0.1926;-3.2898;3.318
14.892000;-0.5618;0.0967;-3.2354;3.285
14.894000;-0.7847;0.0133;-2.9119;3.016
14.895000;-0.9450;0.0609;-2.3659;2.548
14.896000;-0.9212;0.1694;-1.7522;1.987
14.900000;-0.7522;0.4065;-1.3285;1.580
14.912000;-0.5157;0.6913;-0.9765;1.303
14.921000;-0.2713;1.0297;-0.3923;1.135
14.932000;-0.0278;1.3239;0.1225;1.330
14.940000;0.1977;1.5445;0.3625;1.599
14.951000;0.2390;1.6500;0.5221;1.747
15.004000;0.1267;1.6294;0.7674;1.806
15.005000;-0.0818;1.4711;1.0883;1.832
15.006000;-0.3952;1.2403;1.6510;2.102
15.007000;-0.7550;1.0638;2.2812;2.628
15.009000;-1.0411;1.1228;2.4664;2.903
15.014000;-1.0478;1.3157;2.0736;2.670
15.020000;-0.4653;1.5470;1.3373;2.097
15.030000;0.5294;1.8649;0.7838;2.091
15.040000;1.3745;2.2131;0.7640;2.715
15.051000;1.8750;2.3079;1.2139;3.212
15.092000;1.9681;1.7441;2.2679;3.473
15.094000;1.8111;0.8534;3.6206;4.137
15.095000;1.4802;-0.1851;4.6575;4.891
15.097000;0.6694;-1.2052;5.5672;5.735
15.100000;-0.2974;-2.1010;6.1295;6.486
15.111000;-1.6105;-2.8739;4.5456;5.614
15.121000;-1.8387;-2.3860;2.8630;4.156
15.131000;-1.7565;-1.6008;1.0603;2.602
15.140000;-1.5187;-0.9159;-0.3604;1.810
15.152000;-1.1011;-0.3207;-1.2817;1.720
15.204000;-0.5006;0.1240;-1.9649;2.031
15.206000;0.1266;0.4396;-2.2814;2.327
15.207000;0.6276;0.5470;-2.3032;2.449
15.208000;0.8400;0.3042;-2.0393;2.226
15.209000;0.7918;-0.1587;-1.6051;1.797
15.215000;0.5641;-0.6578;-1.1215;1.417
15.220000;0.2096;-1.1583;-0.7186;1.379
15.230000;-0.1941;-1.5390;-0.4133;1.605
15.240000;-0.4921;-1.8225;-0.4006;1.930
15.251000;-0.6382;-2.0308;-0.5682;2.203
15.294000;-0.6450;-2.0305;-0.7444;2.257
15.296000;-0.4688;-1.8132;-0.9701;2.109
15.297000;-0.2025;-1.5154;-1.2779;1.993
15.300000;0.0113;-1.3180;-1.5472;2.033
15.301000;0.1359;-1.2328;-1.8088;2.193
15.312000;0.1577;-1.1987;-2.0799;2.406
15.321000;0.0890;-1.1550;-2.2805;2.558
15.331000;0.0397;-1.1271;-2.4869;2.731
15.340000;-0.0594;-1.0344;-2.6652;2.859
15.352000;-0.1570;-0.8788;-2.7164;2.859
15.398000;-0.2699;-0.7038;-2.6519;2.757
15.399000;-0.2810;-0.4459;-2.5019;2.557
15.401000;-0.2785;-0.2442;-2.4589;2.487
15.402000;-0.3141;0.0105;-2.4029;2.423
15.403000;-0.2996;0.3146;-2.4023;2.441
15.411000;-0.2479;0.5645;-2.4493;2.526
15.421000;-0.1793;0.8185;-2.1666;2.323
15.432000;-0.0947;1.0325;-1.4899;1.815
15.440000;0.0476;1.1009;-0.4217;1.180
15.450000;-0.0145;1.0467;0.0655;1.049
15.501000;-0.1249;1.0414;0.4284;1.133
15.503000;-0.2260;1.0944;0.8362;1.396
15.504000;-0.2369;1.2061;1.2100;1.725
15.504000;-0.2282;1.2689;1.6731;2.112
15.505000;-0.1590;1.2737;1.8871;2.282
15.512000;-0.1355;1.3702;2.0547;2.473
15.521000;-0.2600;1.4944;2.3672;2.811
15.530000;-0.2541;1.6757;2.4238;2.958
15.540000;0.0843;1.7636;2.0932;2.738
15.551000;0.5581;1.6987;1.9073;2.614
15.594000;0.8527;1.5809;2.3683;2.972
15.596000;1.0014;1.4456;3.1275;3.588
15.598000;1.1228;1.1924;3.6209;3.974
15.599000;1.2254;0.6873;3.8836;4.130
15.601000;1.1354;0.0164;4.2576;4.406
15.613000;0.9094;-0.6006;4.3116;4.447
15.621000;0.6983;-1.0303;4.0557;4.242
15.631000;0.6505;-1.3557;3.7572;4.047
15.640000;0.8477;-1.5306;3.4711;3.887
15.651000;1.1739;-1.5300;3.2115;3.746
15.713000;1.4707;-1.3922;2.9375;3.568
15.715000;1.7198;-1.1787;2.4229;3.196
15.716000;1.8309;-0.9847;1.5443;2.590
15.717000;1.7122;-0.8727;0.5461;1.998
15.718000;1.4310;-0.8590;-0.3859;1.713
15.719000;1.0752;-0.8143;-1.0701;1.722
15.721000;0.7221;-0.7207;-1.5591;1.863
15.730000;0.3775;-0.5866;-1.7455;1.880
15.741000;0.1404;-0.4286;-1.7509;1.808
15.751000;0.0668;-0.2259;-1.6885;1.705
15.796000;0.0676;-0.0434;-1.6402;1.642
15.799000;0.0725;0.1435;-1.3684;1.378
15.800000;-0.0413;0.1643;-1.4459;1.456
15.801000;-0.2112;0.1088;-1.7305;1.747
15.803000;-0.5057;0.0351;-2.0936;2.154
15.813000;-0.8008;-0.0109;-2.3994;2.530
15.821000;-0.9112;-0.0163;-2.5727;2.729
15.831000;-0.8149;0.0431;-2.5303;2.659
15.840000;-0.5857;0.1379;-2.4055;2.480
15.850000;-0.3756;0.2303;-2.3221;2.364
15.866000;-0.2712;0.2986;-2.1920;2.229
15.871000;-0.2347;0.2764;-2.0971;2.128
15.935000;-0.2807;0.1892;-2.1183;2.145
15.937000;-0.4138;0.1059;-2.1515;2.194
15.938000;-0.5388;0.0502;-2.1735;2.240
15.940000;-0.6403;0.1036;-2.0863;2.185
15.942000;-0.6697;0.2113;-1.8451;1.974
15.944000;-0.6288;0.2808;-1.3774;1.540
15.945000;-0.4754;0.4090;-0.8581;1.063
15.951000;-0.2978;0.6367;-0.3347;0.779
15.968000;-0.1826;0.8479;0.1057;0.874
15.972000;-0.1149;1.0148;0.3136;1.068
16.014000;0.0244;1.1877;0.4699;1.277
16.015000;0.2432;1.3614;0.6275;1.519
16.017000;0.4452;1.4882;0.8451;1.768
16.018000;0.6030;1.5606;1.0640;1.983
16.021000;0.7779;1.5852;1.1431;2.103
16.031000;0.9299;1.4745;1.2185;2.127
16.041000;0.8798;1.1923;1.5651;2.155
16.051000;0.3368;0.8542;2.2151;2.398
16.105000;-0.5171;0.6293;2.5632;2.689
16.107000;-1.0145;0.6559;2.2054;2.515
16.108000;-0.7609;0.8397;1.6960;2.040
16.109000;-0.1504;1.2411;1.7321;2.136
16.109000;0.7135;2.4690;0.8924;2.721
16.111000;1.2990;2.6316;0.5500;2.986
16.121000;1.8545;2.1889;0.9507;3.022
16.131000;1.8162;1.2281;1.9341;2.924
16.140000;1.3534;0.3962;2.8195;3.153
16.151000;0.8469;-0.3945;3.6569;3.774
16.192000;0.2753;-1.1481;4.2910;4.450
16.195000;-0.4031;-1.7048;4.2247;4.574
16.196000;-1.0580;-2.0361;3.5148;4.197
16.198000;-1.5135;-2.0111;2.4318;3.500
16.200000;-1.7783;-1.6413;1.0495;2.638
16.210000;-1.8504;-1.1756;-0.3696;2.223
16.220000;-1.6902;-0.8691;-1.6427;2.512
16.231000;-1.4575;-0.8263;-2.4914;3.002
16.240000;-1.2479;-1.0032;-2.5568;3.017
16.250000;-1.0732;-1.3233;-2.0256;2.647
16.311000;-1.0001;-1.6335;-1.2487;2.286
16.313000;-1.0430;-1.7872;-0.6047;2.156
16.314000;-1.1035;-1.8305;0.0027;2.137
16.316000;-1.0999;-1.8170;0.2269;2.136
16.318000;-0.9573;-1.7843;0.0601;2.026
16.318000;-0.8281;-1.5995;-0.4583;1.859
16.321000;-0.7228;-1.3320;-1.0894;1.866
16.331000;-0.5925;-1.1096;-1.6028;2.037
16.341000;-0.4762;-0.9955;-1.9265;2.220
16.351000;-0.4295;-0.9810;-2.2014;2.448
16.361000;-0.3799;-0.9173;-2.4394;2.634
16.370000;-0.3404;-0.7656;-2.6935;2.821
16.423000;-0.2618;-0.5827;-2.7149;2.789
16.425000;-0.0761;-0.3870;-2.5898;2.620
16.426000;0.1598;-0.1403;-2.4511;2.460
16.427000;0.3811;0.2523;-2.3751;2.419
16.430000;0.5249;0.6102;-2.4552;2.584
16.431000;0.4928;0.7904;-2.5309;2.697
16.440000;0.1668;0.7830;-2.3668;2.499
16.451000;-0.0214;0.6362;-2.1066;2.201
16.497000;-0.2468;0.5213;-1.6687;1.766
16.499000;-0.4737;0.4527;-0.9629;1.165
16.500000;-0.6588;0.4134;-0.2264;0.810
16.501000;-0.6874;0.4588;0.3792;0.909
16.501000;-0.5655;0.6795;0.7153;1.137
16.510000;-0.4327;0.9200;0.8455;1.322
16.521000;-0.3885;1.0321;0.8389;1.386
16.531000;-0.4370;1.0585;0.8567;1.430
16.541000;-0.4817;1.0097;1.0866;1.560
16.553000;-0.4628;0.9536;1.5630;1.889
16.561000;-0.4859;1.0566;2.3742;2.644
16.629000;-0.4386;1.3128;2.8449;3.164
16.632000;-0.1554;1.5425;2.7563;3.162
16.633000;0.5488;1.6693;2.5889;3.129
16.634000;1.4640;1.6523;2.7051;3.492
16.635000;2.0514;1.6880;2.9002;3.933
16.637000;2.0754;1.5978;2.9060;3.912
16.638000;1.8297;1.1867;3.0852;3.778
16.641000;1.5059;0.4637;3.7713;4.087
16.650000;1.1373;-0.4657;4.5427;4.706
16.661000;0.6781;-1.4416;5.0294;5.276
16.671000;0.2956;-2.2139;5.3150;5.765
16.716000;0.1609;-2.6618;5.4396;6.058
16.718000;0.3945;-2.6908;5.1970;5.866
16.719000;0.8818;-2.3092;4.4294;5.072
16.721000;1.2209;-1.7386;3.3712;3.985
16.722000;1.4638;-1.2175;1.9477;2.724
16.731000;1.6379;-0.8948;0.5256;1.939
16.740000;1.6165;-0.7456;-0.4629;1.839
16.752000;1.3502;-0.6706;-0.8832;1.747
16.761000;0.9437;-0.5873;-0.8066;1.373
16.799000;0.4324;-0.3831;-0.5379;0.789
16.801000;0.3396;-0.1508;-0.4985;0.622
16.803000;0.3010;0.0788;-0.5527;0.634
16.804000;0.2554;0.2605;-0.6590;0.753
16.811000;0.2459;0.4143;-0.8597;0.985
16.821000;0.2024;0.5117;-1.1531;1.278
16.831000;0.1440;0.5727;-1.5592;1.667
16.841000;0.0279;0.5762;-1.9513;2.035
16.851000;-0.1074;0.4662;-2.2468;2.297
16.861000;-0.1763;0.3539;-2.3731;2.406
16.874000;-0.1661;0.2697;-2.3286;2.350
16.939000;-0.0381;0.2056;-2.3529;2.362
16.942000;0.1114;0.2680;-2.3743;2.392
16.944000;0.2183;0.4085;-2.4168;2.461
16.946000;0.2923;0.4735;-2.4328;2.496
16.947000;0.3524;0.4918;-2.5048;2.577
16.949000;0.3653;0.4633;-2.6512;2.716
16.951000;0.3534;0.4702;-2.7642;2.826
16.952000;0.4334;0.5678;-2.8273;2.916
16.961000;0.5408;0.6230;-2.8274;2.945
16.972000;0.5930;0.6270;-2.6809;2.816
17.014000;0.5519;0.6201;-2.3176;2.462
17.017000;0.5027;0.5926;-1.9423;2.092
17.018000;0.3774;0.6043;-1.5514;1.707
17.019000;0.1773;0.5917;-1.1916;1.342
17.021000;-0.0141;0.6080;-1.0040;1.174
17.031000;-0.0941;0.6566;-0.9854;1.188
17.041000;-0.0645;0.7317;-1.0139;1.252
17.053000;-0.0079;0.8375;-0.9538;1.269
17.060000;0.0493;0.9914;-0.7079;1.219
17.108000;0.1357;1.1135;-0.3374;1.171
17.109000;0.0483;1.0744;0.4253;1.157
17.111000;-0.1607;1.0537;1.2915;1.675
17.114000;-0.1305;1.0137;1.4770;1.796
17.115000;0.2884;1.0330;1.0690;1.514
17.121000;0.5863;1.2655;1.0014;1.717
17.131000;0.6629;1.6734;1.2570;2.195
17.140000;0.7488;1.8758;1.6698;2.621
17.150000;0.9077;1.6761;2.5682;3.198
17.160000;0.9085;1.0757;3.5513;3.820
17.171000;0.5526;0.2864;4.2732;4.318
17.239000;-0.1475;-0.4662;4.8584;4.883
17.241000;-0.9073;-1.0441;5.3113;5.488
17.244000;-1.5500;-1.4250;5.2210;5.630
17.246000;-2.0168;-1.5269;4.3333;5.018
17.248000;-2.2379;-1.3152;2.9933;3.962
17.249000;-2.2410;-0.8299;1.4940;2.818
17.251000;-2.0212;-0.2990;0.1789;2.051
17.255000;-1.5746;0.1412;-0.7995;1.772
17.261000;-1.0263;0.4302;-1.4927;1.862
17.271000;-0.5948;0.5291;-1.8377;2.003
17.319000;-0.3688;0.4228;-1.7681;1.855
17.320000;-0.3017;0.0680;-1.3826;1.417
17.322000;-0.3503;-0.4835;-0.8816;1.065
17.323000;-0.5376;-0.9811;-0.4870;1.220
17.323000;-0.8549;-1.4064;-0.2312;1.662
17.332000;-1.2110;-1.7241;-0.0312;2.107
17.341000;-1.4345;-1.9406;-0.0948;2.415
17.351000;-1.5347;-2.0901;-0.3769;2.620
17.361000;-1.5232;-2.0195;-0.7241;2.631
17.372000;-1.3463;-1.8610;-0.9926;2.502
17.442000;-1.0770;-1.6539;-1.2679;2.346
17.444000;-0.8177;-1.4320;-1.7012;2.369
17.446000;-0.6202;-1.1555;-2.1472;2.516
17.447000;-0.5056;-0.9313;-2.5784;2.788
17.449000;-0.4114;-0.6803;-2.9318;3.038
17.450000;-0.1937;-0.1416;-3.3629;3.371
17.451000;-0.0789;0.1076;-3.3350;3.338
17.453000;0.0670;0.4294;-3.1828;3.212
17.461000;0.2057;0.7313;-2.9056;3.003
17.471000;0.2148;0.9129;-2.5975;2.762
17.516000;0.1804;1.0066;-2.1922;2.419
17.518000;0.1921;1.0689;-1.7503;2.060
17.519000;0.2339;1.1506;-1.2774;1.735
17.520000;0.2393;1.2171;-0.8728;1.517
17.522000;0.1050;1.2368;-0.4520;1.321
17.532000;-0.1043;1.1739;-0.2130;1.198
17.541000;-0.2895;1.1442;-0.0407;1.181
17.551000;-0.4396;1.0974;0.3742;1.240
17.560000;-0.4489;1.0566;0.9722;1.504
17.571000;-0.3561;1.0529;1.5480;1.906
17.643000;-0.1728;1.1120;2.1211;2.401
17.645000;-0.0099;1.1236;2.7264;2.949
17.647000;-0.0676;1.0713;3.4756;3.638
17.648000;-0.3173;1.0624;4.2427;4.385
17.650000;-0.3519;1.2619;4.4025;4.593
17.651000;0.1026;1.5092;3.8813;4.166
17.653000;0.8918;1.5482;3.1806;3.648
17.654000;1.4912;1.5220;2.8956;3.595
17.661000;1.6086;1.6164;3.0048;3.772
17.671000;1.5972;1.7096;2.7784;3.632
17.716000;1.6317;1.5274;2.5841;3.417
17.717000;1.6042;0.9683;2.6679;3.260
17.719000;1.3492;0.1639;2.8223;3.133
17.719000;0.8911;-0.5418;2.7060;2.900
17.722000;0.4885;-1.1749;2.6228;2.915
17.733000;0.1743;-1.6862;2.7650;3.243
17.741000;-0.0050;-2.0127;3.0528;3.657
17.751000;-0.0059;-2.1041;3.1153;3.759
17.760000;0.0642;-1.9997;1.6150;2.571
17.771000;0.5152;-1.4263;0.1319;1.522
17.838000;0.5987;-1.0906;-1.0084;1.601
17.840000;0.4830;-0.8565;-1.6313;1.905
17.842000;0.2688;-0.7331;-1.7948;1.957
17.843000;0.1083;-0.6170;-1.6482;1.763
17.844000;0.0586;-0.5625;-1.3194;1.436
17.845000;0.0254;-0.5137;-0.9699;1.098
17.847000;-0.0362;-0.4614;-0.6988;0.838
17.851000;-0.1332;-0.4429;-0.7729;0.901
17.860000;-0.2638;-0.3944;-1.1141;1.211
17.873000;-0.4229;-0.3327;-1.5805;1.670
17.918000;-0.6011;-0.3446;-1.9904;2.108
17.920000;-0.7200;-0.3813;-2.3141;2.453
17.921000;-0.7270;-0.4247;-2.4171;2.560
17.922000;-0.6013;-0.4132;-2.2842;2.398
17.923000;-0.2975;-0.3190;-2.1411;2.185
17.932000;-0.0021;-0.1950;-1.9644;1.974
17.940000;0.1967;-0.0882;-1.8002;1.813
17.950000;0.2801;-0.0126;-1.7946;1.816
17.960000;0.3133;0.0335;-2.0173;2.042
17.974000;0.2363;0.1224;-2.2697;2.285
18.032000;0.1189;0.2494;-2.4512;2.467
18.034000;-0.0164;0.3600;-2.4764;2.502
18.034000;-0.2130;0.4150;-2.3254;2.372
18.035000;-0.3426;0.4281;-2.0246;2.098
18.036000;-0.3482;0.4214;-1.5260;1.621
18.037000;-0.2946;0.4582;-1.1782;1.298
18.041000;-0.2425;0.6568;-0.8815;1.126
18.050000;-0.2186;0.8698;-0.4613;1.009
18.060000;-0.1418;1.0279;-0.0482;1.039
18.070000;-0.0880;1.1148;0.3043;1.159
18.081000;-0.0326;1.2647;0.7342;1.463
18.115000;0.1808;1.4153;1.1725;1.847
18.117000;0.7907;1.5182;1.5238;2.292
18.117000;0.6644;1.4752;1.9803;2.557
18.121000;0.2318;1.4804;2.0189;2.514
18.131000;0.0628;1.5781;1.4257;2.128
18.141000;0.4281;1.6066;0.8461;1.866
18.153000;0.9155;1.6383;0.6176;1.976
18.160000;1.0304;1.6299;0.7273;2.061
18.205000;1.0254;1.5922;1.0314;2.156
18.207000;1.2816;1.4313;2.0398;2.802
18.208000;1.6179;0.8851;3.4496;3.912
18.209000;1.6356;0.2870;4.3903;4.694
18.212000;1.2265;-0.2787;4.7389;4.903
18.221000;0.5649;-0.7936;4.4282;4.534
18.233000;-0.0925;-1.1762;3.5536;3.744
18.240000;-0.6601;-1.3805;2.5342;2.960
18.250000;-1.0682;-1.4065;1.6706;2.431
18.260000;-1.3669;-1.3292;1.1527;2.228
18.270000;-1.5967;-1.2847;0.7142;2.170
18.280000;-1.5487;-1.2253;0.3281;2.002
18.325000;-1.2323;-1.2081;-0.0345;1.726
18.327000;-0.8952;-1.1788;-0.2322;1.498
18.328000;-0.6370;-1.2138;-0.3474;1.414
18.329000;-0.5226;-1.3377;-0.4851;1.516
18.337000;-0.5262;-1.4482;-0.6890;1.688
18.341000;-0.6200;-1.5820;-0.8844;1.916
18.351000;-0.6289;-1.6002;-1.1061;2.044
18.361000;-0.6717;-1.6788;-1.3172;2.237
18.372000;-0.7090;-1.6857;-1.4246;2.318
18.415000;-0.6309;-1.5984;-1.6176;2.360
18.417000;-0.5338;-1.4640;-1.8846;2.445
18.419000;-0.4359;-1.3307;-2.1096;2.532
18.420000;-0.3749;-1.2480;-2.3200;2.661
18.421000;-0.3023;-0.9875;-2.7863;2.972
18.434000;-0.2192;-0.8340;-2.9939;3.116
18.441000;-0.1375;-0.6415;-3.1654;3.233
18.450000;-0.0826;-0.4262;-3.2178;3.247
18.460000;-0.0313;-0.2029;-3.1455;3.152
18.472000;0.0414;-0.0012;-3.0092;3.010
18.481000;0.0412;0.2222;-2.8265;2.836
18.534000;0.0026;0.4116;-2.5898;2.622
18.536000;-0.0491;0.5360;-2.2386;2.302
18.537000;-0.1082;0.5868;-1.7028;1.804
18.539000;-0.2299;0.6252;-1.0596;1.252
18.540000;-0.2405;0.7541;-0.3461;0.864
18.541000;-0.1142;0.9757;0.3110;1.030
18.551000;0.1296;1.1412;1.1380;1.617
18.560000;0.4679;1.3050;1.8726;2.330
18.571000;0.7230;1.3856;2.6452;3.072
18.581000;0.8251;1.4781;3.2173;3.635
18.620000;0.7978;1.4478;3.3340;3.721
18.622000;0.6530;1.3653;2.9968;3.357
18.623000;0.4661;1.3531;2.4855;2.868
18.625000;0.2225;1.3170;2.2046;2.578
18.631000;-0.1202;1.3190;2.3783;2.722
18.641000;-0.3583;1.5214;2.6980;3.118
18.657000;-0.2615;1.7652;2.6080;3.160
18.661000;0.2787;2.0234;2.3638;3.124
18.705000;1.0922;2.1662;2.7198;3.645
18.708000;1.8098;2.4510;2.9663;4.252
18.710000;2.1817;2.5830;2.6062;4.269
18.712000;2.2583;2.3095;2.0651;3.834
18.713000;2.1074;1.5824;1.7011;3.137
18.721000;1.6891;0.6339;1.4317;2.303
18.731000;1.1231;-0.3442;1.2806;1.738
18.741000;0.5811;-1.3560;1.2395;1.927
18.754000;-0.2781;-3.2143;2.3299;3.980
18.760000;-0.3910;-3.4821;2.7917;4.480
18.818000;-0.3724;-3.2094;2.9094;4.348
18.820000;-0.1544;-2.5596;2.2342;3.401
18.822000;0.2535;-1.8118;0.9643;2.068
18.823000;0.6596;-1.2877;-0.3849;1.497
18.825000;0.8869;-0.9327;-1.3543;1.868
18.826000;0.8909;-0.7010;-1.9437;2.250
18.831000;0.8064;-0.5455;-2.2656;2.466
18.841000;0.7230;-0.4440;-2.3421;2.491
18.855000;0.6517;-0.4354;-2.0786;2.221
18.861000;0.5754;-0.4548;-1.7674;1.914
18.905000;0.4064;-0.4957;-1.2791;1.431
18.907000;0.1937;-0.5239;-0.7283;0.918
18.908000;0.0833;-0.5452;-0.5644;0.789
18.909000;-0.0397;-0.4460;-0.7097;0.839
18.912000;-0.1919;-0.4083;-0.9666;1.067
18.922000;-0.3295;-0.3756;-1.5389;1.618
18.931000;-0.4553;-0.3461;-2.1870;2.260
18.942000;-0.5896;-0.2979;-2.6724;2.753
18.954000;-0.6118;-0.2131;-2.9077;2.979
18.960000;-0.5105;-0.0886;-3.1043;3.147
19.013000;-0.3775;-0.0035;-3.1990;3.221
19.015000;-0.2914;0.0771;-3.2173;3.231
19.017000;-0.1940;0.1425;-3.0849;3.094
19.018000;-0.1823;0.1891;-2.7785;2.791
19.022000;-0.2451;0.2099;-2.2559;2.279
19.023000;-0.3244;0.2571;-1.7322;1.781
19.031000;-0.2388;0.2806;-1.0751;1.137
19.044000;-0.1174;0.3336;-0.6235;0.717
19.093000;-0.0271;0.4340;-0.3244;0.543
19.095000;0.0842;0.6477;-0.0935;0.660
19.096000;0.2497;0.9048;0.0334;0.939
19.097000;0.3931;1.1698;-0.0429;1.235
19.098000;0.5363;1.5941;0.0695;1.683
19.102000;0.5545;1.7068;0.6243;1.900
19.111000;0.6164;1.7332;1.1749;2.183
19.121000;0.6857;1.7436;1.6818;2.518
19.130000;0.6567;1.7746;2.0127;2.763
19.141000;0.5327;1.8536;1.6684;2.550
19.154000;0.7974;2.0165;0.6502;2.264
19.161000;1.3371;2.0234;-0.2098;2.434
19.220000;1.6152;1.9794;-0.6206;2.629
19.222000;1.4733;1.9296;-0.6723;2.519
19.223000;1.2235;1.5098;-0.3420;1.973
19.224000;1.2539;0.8757;1.6353;2.239
19.224000;1.4616;0.0758;3.8706;4.138
19.225000;1.1232;-0.5543;5.7604;5.895
19.231000;0.5357;-1.1471;7.0800;7.192
19.241000;-0.1803;-1.6496;7.1395;7.330
19.257000;-0.7308;-1.7793;5.7723;6.084
19.261000;-1.1208;-1.4475;3.7520;4.175
19.300000;-1.3836;-0.8628;1.6966;2.353
19.302000;-1.4507;-0.3958;-0.2262;1.521
19.304000;-1.2271;0.0003;-1.8519;2.222
19.305000;-0.8740;0.2616;-2.8116;2.956
19.310000;-0.4539;0.2764;-2.7730;2.823
19.321000;-0.0560;0.0179;-2.0780;2.079
19.331000;0.0819;-0.3660;-0.8911;0.967
19.340000;-0.1846;-0.8569;0.1306;0.886
19.355000;-0.5408;-1.3224;1.0348;1.764
19.361000;-1.0098;-1.8161;1.6206;2.635
19.405000;-1.3651;-2.1743;1.8319;3.154
19.408000;-1.5805;-2.4123;1.6163;3.306
19.409000;-1.5538;-2.4209;0.7032;2.961
19.411000;-1.3098;-2.1384;-0.5521;2.568
19.412000;-1.0152;-1.7291;-2.4720;3.183
19.421000;-0.4502;-1.1912;-2.7452;3.026
19.430000;-0.1080;-1.0481;-2.6733;2.873
19.441000;0.1954;-0.8786;-2.5580;2.712
19.457000;0.4322;-0.6470;-2.4711;2.591
19.461000;0.5580;-0.3701;-2.6355;2.719
19.501000;0.6085;-0.1451;-2.8312;2.899
19.503000;0.7144;0.1056;-2.9543;3.041
19.505000;0.7894;0.3357;-2.8424;2.969
19.506000;0.8063;0.4703;-2.6688;2.827
19.511000;0.6462;0.5685;-2.5344;2.677
19.521000;0.3280;0.5899;-2.2400;2.340
19.530000;-0.0259;0.5546;-1.7497;1.836
19.540000;-0.3278;0.5117;-1.2892;1.425
19.555000;-0.5505;0.5401;-0.8501;1.148
19.560000;-0.6426;0.6583;-0.3176;0.973
19.614000;-0.5468;0.7752;0.2101;0.972
19.616000;-0.3716;0.8506;0.5341;1.071
19.617000;-0.2569;0.9835;0.7935;1.290
19.618000;-0.2064;1.1176;1.2145;1.663
19.619000;-0.0084;1.3399;1.3809;1.924
19.621000;0.0946;1.5442;1.9491;2.488
19.631000;0.0746;1.6831;2.8329;3.296
19.641000;0.1355;1.7601;3.1836;3.640
19.656000;0.2746;1.7813;3.0409;3.535
19.661000;0.7942;1.9371;2.7492;3.456
19.697000;1.5989;1.9824;3.0495;3.973
19.699000;2.3765;2.0537;3.2978;4.554
19.701000;2.7641;1.9483;3.2670;4.702
19.702000;2.6734;1.5013;3.3673;4.554
19.710000;2.1610;0.6733;3.7326;4.365
19.721000;1.4577;-0.2763;3.7991;4.079
19.730000;0.8688;-1.1124;3.5780;3.846
19.741000;0.4067;-1.6874;3.3982;3.816
19.758000;0.0749;-2.0276;2.7200;3.393
19.762000;0.1645;-1.9487;2.1339;2.894
19.824000;0.4022;-1.5297;1.3639;2.089
19.826000;0.6750;-1.1359;0.3338;1.363
19.827000;0.8928;-0.8657;-0.6168;1.388
19.828000;0.9620;-0.6772;-1.2375;1.707
19.830000;0.8298;-0.5801;-1.2609;1.617
19.831000;0.6244;-0.4872;-0.8312;1.148
19.832000;0.4147;-0.4683;-0.1662;0.647
19.841000;0.1635;-0.5613;0.5454;0.800
19.858000;-0.1335;-0.6626;0.8101;1.055
19.862000;-0.3907;-0.6230;1.0174;1.255
19.903000;-0.5175;-0.5178;0.7945;1.080
19.905000;-0.4813;-0.4200;0.1133;0.649
19.905000;-0.4669;-0.2990;-0.8951;1.053
19.906000;-0.4776;-0.1682;-1.8577;1.925
19.910000;-0.4634;-0.0852;-2.6017;2.644
19.922000;-0.4423;-0.0697;-2.9826;3.016
19.930000;-0.4284;-0.1200;-3.0938;3.126
19.942000;-0.3904;-0.1628;-2.8957;2.926
19.955000;-0.2704;-0.1766;-2.5635;2.584
19.960000;-0.1327;-0.1607;-2.2113;2.221
20.009000;-0.0283;-0.0985;-2.0947;2.097
20.011000;0.0525;-0.0223;-2.2045;2.205
20.013000;0.0594;0.0757;-2.4585;2.460
20.013000;-0.0037;0.1788;-2.7074;2.713
20.014000;-0.0475;0.3514;-2.8193;2.842
20.020000;-0.1555;0.3975;-2.8323;2.864
20.030000;-0.3212;0.4130;-2.5847;2.637
20.041000;-0.4846;0.3161;-2.1576;2.234
20.057000;-0.6425;0.2261;-1.4538;1.605
20.062000;-0.8063;0.1489;-0.6842;1.068
20.099000;-0.9258;0.1602;0.0062;0.940
20.102000;-0.9800;0.3122;0.5324;1.158
20.103000;-0.8352;0.7958;0.5166;1.264
20.104000;-0.7670;1.0287;0.4949;1.375
20.110000;-0.6107;1.2096;0.5055;1.446
20.121000;-0.3055;1.1832;0.6824;1.400
20.130000;-0.1207;0.9826;1.4551;1.760
20.141000;-0.3927;0.8012;2.5176;2.671
20.157000;-0.8447;0.8413;2.7779;3.023
20.161000;-0.9285;1.0370;2.0751;2.499
20.215000;-0.6316;1.1464;1.8747;2.286
20.216000;-0.2365;1.5866;1.9233;2.504
20.220000;-0.0706;1.9631;1.7803;2.651
20.223000;0.2887;2.1619;1.4452;2.616
20.224000;0.8804;1.9648;1.7210;2.756
20.225000;1.2107;1.3201;2.4834;3.062
20.231000;1.1769;0.7891;3.0969;3.406
20.241000;1.0441;0.4276;3.2133;3.406
20.250000;0.9514;0.0588;3.1402;3.282
20.261000;0.7995;-0.3349;2.7525;2.886
20.302000;0.4642;-0.6771;2.2294;2.376
20.303000;0.0583;-0.9059;1.6366;1.872
20.305000;-0.3699;-1.0725;1.0394;1.539
20.306000;-0.6878;-1.1999;0.3269;1.421
20.311000;-0.8215;-1.2963;-0.5248;1.622
20.322000;-0.8871;-1.4701;-1.1644;2.075
20.330000;-0.8723;-1.6057;-1.5123;2.372
20.342000;-0.8884;-1.8013;-1.5572;2.541
20.350000;-0.9143;-1.8911;-1.4571;2.556
20.361000;-0.9961;-1.9342;-1.2683;2.518
20.415000;-1.0315;-2.0760;-0.9794;2.517
20.420000;-1.0667;-2.2519;-0.7276;2.596
20.422000;-1.0178;-2.3164;-0.5980;2.600
20.424000;-0.9386;-2.2955;-0.7306;2.585
20.425000;-0.7869;-2.1320;-1.6309;2.797
20.426000;-0.3129;-1.5396;-2.0077;2.549
20.431000;-0.0632;-1.2822;-2.1411;2.496
20.441000;0.1605;-1.0352;-2.2325;2.466
20.451000;0.2743;-0.7785;-2.2944;2.438
20.461000;0.3502;-0.5373;-2.3767;2.462
20.504000;0.4289;-0.2589;-2.4907;2.541
20.506000;0.5560;0.0676;-2.6680;2.726
20.508000;0.6279;0.3570;-2.7738;2.866
20.509000;0.5825;0.5229;-2.6255;2.740
20.511000;0.5118;0.6569;-2.4605;2.598
20.522000;0.4145;0.8243;-2.2882;2.467
20.531000;0.3000;1.0928;-1.8037;2.130
20.541000;0.1966;1.2339;-1.1231;1.680
20.551000;0.1203;1.4050;-0.3821;1.461
20.561000;0.0650;1.4433;0.2361;1.464
20.621000;0.0306;1.3978;0.6958;1.562
20.623000;0.0215;1.3714;1.0824;1.747
20.624000;0.0699;1.3495;1.4900;2.012
20.625000;0.1237;1.3505;1.8693;2.309
20.626000;0.0513;1.3114;2.2662;2.619
20.627000;-0.1265;1.4317;2.6911;3.051
20.630000;-0.2783;1.5424;3.0286;3.410
20.642000;-0.2674;1.6879;2.8804;3.349
20.650000;-0.1935;1.7454;2.3399;2.926
20.662000;-0.0710;1.6683;2.2629;2.812
20.703000;-0.0748;1.3145;2.1438;2.516
20.705000;0.1820;1.3534;2.6295;2.963
20.706000;0.3089;1.0772;3.0313;3.232
20.707000;0.3804;0.5199;4.0891;4.140
20.710000;0.4799;-0.1270;5.3116;5.335
20.721000;0.5998;-0.5677;5.9825;6.039
20.731000;0.8245;-0.7000;6.0037;6.100
20.741000;1.2519;-0.6267;5.3735;5.553
20.751000;2.5463;-0.0761;2.1950;3.363
20.761000;2.7814;0.2068;0.8056;2.903
20.797000;2.5510;0.1685;-0.2098;2.565
20.799000;1.9145;-0.1930;-0.8043;2.086
20.800000;1.1796;-0.7163;-1.1749;1.813
20.802000;0.4486;-1.1913;-1.3272;1.839
20.811000;-0.1779;-1.5371;-1.3178;2.033
20.821000;-0.6670;-1.6708;-1.1934;2.159
20.830000;-0.8560;-1.5725;-1.0127;2.057
20.841000;-0.7540;-1.3808;-0.7181;1.729
20.851000;-0.4875;-1.1602;-0.4641;1.341
20.861000;-0.2149;-0.8774;-0.4640;1.016
20.909000;-0.0064;-0.5211;-0.7828;0.940
20.910000;0.1102;-0.2673;-1.4395;1.468
20.911000;0.1540;-0.1429;-2.0891;2.100
20.913000;0.1336;-0.0714;-2.6463;2.651
20.914000;0.1340;0.0107;-2.9465;2.950
20.921000;0.1505;0.0753;-3.0888;3.093
20.930000;0.1567;0.1455;-3.0226;3.030
20.941000;0.2322;0.2526;-2.7239;2.745
20.950000;0.3402;0.3398;-2.4030;2.451
20.961000;0.3834;0.4123;-2.1548;2.227
21.002000;0.3006;0.4262;-2.0829;2.147
21.004000;0.0742;0.3682;-2.1086;2.142
21.005000;-0.2816;0.2410;-2.1143;2.147
21.007000;-0.6955;0.1365;-2.1188;2.234
21.011000;-1.0445;0.0876;-2.1643;2.405
21.022000;-1.2808;0.1097;-2.2239;2.569
21.031000;-1.4197;0.2738;-2.1568;2.597
21.040000;-1.3216;0.6033;-1.8683;2.367
21.050000;-1.0360;0.9565;-1.2786;1.903
21.062000;-0.6797;1.3857;-0.5839;1.650
21.112000;-0.3281;1.7539;-0.0235;1.784
21.113000;0.2830;2.3316;1.1012;2.594
21.114000;0.5454;2.4635;1.3463;2.860
21.115000;0.7888;2.4276;1.3611;2.893
21.117000;1.0260;2.1586;1.4239;2.782
21.120000;0.9029;1.7774;1.8375;2.711
21.130000;0.1253;1.4624;2.0006;2.481
21.140000;-0.7582;1.3353;1.3622;2.053
21.150000;-1.0846;1.1441;0.7302;1.737
21.161000;-0.9389;0.8144;0.9239;1.549
21.200000;-0.8048;0.5978;1.6534;1.934
21.202000;-0.6956;0.4837;2.6711;2.802
21.203000;-0.3133;0.3418;3.9857;4.013
21.205000;0.1746;0.1061;5.4795;5.483
21.211000;0.3166;-0.2254;6.2976;6.310
21.220000;0.0485;-0.5499;5.8507;5.877
21.230000;-0.3603;-0.8137;4.2213;4.314
21.241000;-0.7030;-0.9093;2.0662;2.364
21.250000;-0.9378;-0.8052;0.3881;1.296
21.261000;-1.1653;-0.7113;-0.5368;1.467
21.308000;-1.3178;-0.7195;-0.9719;1.789
21.309000;-1.3211;-0.7505;-0.9202;1.776
21.311000;-1.0577;-0.8249;-0.7834;1.553
21.312000;-0.6526;-0.9004;-0.7160;1.323
21.313000;-0.4854;-1.0761;-0.7541;1.401
21.321000;-0.5797;-1.2832;-0.7092;1.577
21.330000;-0.7696;-1.5281;-0.7493;1.868
21.340000;-0.9926;-1.7837;-0.7951;2.191
21.350000;-1.1953;-1.9610;-0.9312;2.478
21.361000;-1.2936;-2.0711;-1.2045;2.723
21.405000;-1.3276;-2.1242;-1.3893;2.864
21.407000;-1.2522;-2.1237;-1.4443;2.857
21.409000;-1.0484;-2.0435;-1.4703;2.727
21.410000;-0.7938;-1.8962;-1.6205;2.618
21.412000;-0.3148;-1.5635;-1.9987;2.557
21.422000;-0.0214;-1.3505;-2.2257;2.603
21.431000;0.2246;-1.0736;-2.3788;2.620
21.441000;0.4454;-0.7554;-2.5891;2.734
21.450000;0.5677;-0.4875;-2.6449;2.749
21.461000;0.6274;-0.2244;-2.4087;2.499
21.517000;0.7041;-0.0542;-2.2583;2.366
21.519000;0.7135;0.1280;-2.3815;2.489
21.523000;0.5773;0.3535;-2.4535;2.545
21.524000;0.3809;0.4944;-2.2616;2.346
21.526000;0.2058;0.6026;-1.8236;1.932
21.527000;0.0345;0.6984;-1.1129;1.314
21.531000;-0.0231;0.8149;-0.2825;0.863
21.541000;0.1551;1.0367;0.3753;1.113
21.551000;0.4330;1.2231;0.8803;1.568
21.561000;0.6241;1.2421;1.3976;1.971
21.606000;0.7198;1.1665;2.1299;2.533
21.609000;0.7383;1.1474;2.9548;3.255
21.610000;0.6235;1.2296;3.6872;3.936
21.612000;0.4060;1.4700;3.9022;4.190
21.613000;0.2453;1.6730;3.4626;3.853
21.623000;0.3668;1.8256;2.6339;3.226
21.631000;0.5614;1.8214;2.0143;2.773
21.641000;0.6582;1.8335;2.0512;2.829
21.650000;0.7759;1.8502;2.3870;3.118
21.662000;0.9277;1.6222;3.2022;3.708
21.700000;0.9662;0.9811;4.2473;4.465
21.702000;0.6674;0.0719;5.0476;5.092
21.703000;0.2048;-0.7390;5.7353;5.786
21.705000;-0.0057;-1.3348;6.3908;6.529
21.711000;0.2868;-1.5615;6.4901;6.681
21.722000;0.8800;-1.3805;5.8592;6.084
21.730000;1.5364;-0.8757;4.3063;4.655
21.741000;2.0522;-0.3007;0.3446;2.103
21.750000;2.3864;0.0283;-1.3615;2.748
21.761000;2.1307;-0.2794;-2.4910;3.290
21.812000;1.5711;-0.7344;-3.1475;3.594
21.814000;0.8912;-1.1847;-3.5832;3.878
21.815000;0.2047;-1.4017;-3.4972;3.773
21.817000;-0.2241;-1.4513;-2.7474;3.115
21.818000;-0.2851;-1.4876;-1.9325;2.455
21.823000;-0.2050;-1.4728;-1.4498;2.077
21.830000;-0.2181;-1.3089;-1.3821;1.916
21.843000;-0.3050;-1.0784;-1.5786;1.936
21.850000;-0.1866;-0.8353;-2.0433;2.215
21.861000;0.0273;-0.6057;-2.7389;2.805
21.907000;0.1476;-0.4219;-3.4915;3.520
21.909000;0.1698;-0.3373;-3.9257;3.944
21.911000;0.1970;-0.3168;-3.9340;3.952
21.912000;0.3119;-0.2911;-3.6701;3.695
21.914000;0.4148;-0.2595;-3.3053;3.341
21.923000;0.5280;-0.1606;-2.8968;2.949
21.931000;0.5237;-0.0037;-2.4316;2.487
21.941000;0.4212;0.1373;-1.9218;1.972
21.950000;0.1970;0.2856;-1.3658;1.409
21.961000;-0.1005;0.4096;-1.0612;1.142
22.012000;-0.3947;0.5577;-0.9424;1.164
22.013000;-0.7132;0.6559;-0.8538;1.291
22.014000;-0.9896;0.7950;-0.7942;1.497
22.015000;-1.2262;0.9998;-0.7395;1.746
22.017000;-1.2818;1.2135;-0.5891;1.861
22.022000;-1.1671;1.3947;-0.3625;1.854
22.030000;-0.9943;1.5682;0.2549;1.874
22.041000;-0.8076;1.6724;1.4080;2.331
22.050000;-0.5187;1.7496;2.4273;3.037
22.061000;-0.1620;1.7675;2.8777;3.381
22.105000;0.1422;1.9472;3.2808;3.818
22.107000;0.3594;2.4922;2.6429;3.650
22.109000;0.6997;2.8684;1.5675;3.343
22.109000;1.1332;3.1158;1.0308;3.472
22.111000;1.3141;3.0630;1.4513;3.635
22.120000;1.0519;2.4747;2.5731;3.722
22.130000;0.6355;1.5051;3.7340;4.076
22.140000;0.2339;0.5450;4.7009;4.738
22.150000;-0.1565;-0.3518;5.6634;5.677
22.160000;-0.4558;-0.9517;6.1832;6.273
22.214000;-0.6218;-1.2101;5.7071;5.867
22.216000;-0.5534;-1.0691;3.9514;4.131
22.217000;-0.4684;-0.6805;1.8176;1.997
22.218000;-0.5661;-0.4224;0.1008;0.713
22.219000;-0.7408;-0.3489;-1.1398;1.403
22.221000;-0.7722;-0.4811;-2.0277;2.222
22.231000;-0.6384;-0.7599;-2.4904;2.681
22.241000;-0.4903;-1.1511;-2.5414;2.833
22.250000;-0.5018;-1.6737;-2.2888;2.880
22.262000;-0.6756;-2.1248;-1.6651;2.783
22.270000;-0.9435;-2.5395;-1.2005;2.963
22.305000;-1.2534;-2.9203;-0.7952;3.276
22.307000;-1.5109;-3.0989;-0.6691;3.512
22.309000;-1.5538;-3.1388;-0.7980;3.592
22.310000;-1.2988;-2.9477;-1.1675;3.426
22.321000;-0.7818;-2.5691;-1.6884;3.172
22.331000;-0.1115;-2.1165;-2.2751;3.109
22.340000;0.4808;-1.7259;-2.8641;3.378
22.350000;0.9058;-1.3688;-3.2886;3.675
22.361000;1.1466;-0.9849;-3.5939;3.899
22.423000;1.2422;-0.6715;-3.6966;3.957
22.425000;1.1608;-0.4030;-3.5624;3.768
22.426000;1.0360;-0.1398;-3.3364;3.496
22.427000;1.0295;0.1467;-2.6244;2.823
22.428000;1.1192;0.6862;-2.3488;2.691
22.430000;1.0323;0.8496;-2.1290;2.514
22.431000;0.8162;0.9682;-1.7211;2.137
22.441000;0.5510;1.0325;-1.1634;1.650
22.450000;0.3905;1.1605;-0.6762;1.399
22.462000;0.3045;1.3122;-0.0895;1.350
22.472000;0.3438;1.3700;0.6448;1.553
22.508000;0.4465;1.3350;1.4929;2.052
22.510000;0.5328;1.3167;2.6078;2.970
22.511000;0.5886;1.3245;3.7588;4.029
22.512000;0.4758;1.3813;4.7040;4.926
22.521000;0.1716;1.4111;5.2543;5.443
22.530000;-0.0017;1.6241;5.3102;5.553
22.541000;0.1199;1.8781;4.5927;4.963
22.550000;0.4318;2.0459;3.5221;4.096
22.561000;0.8641;2.0448;3.1284;3.836
22.570000;1.4641;1.8969;2.9635;3.811
22.603000;1.7407;1.5171;2.4808;3.389
22.604000;1.3006;0.8697;2.2944;2.777
22.605000;0.6728;0.0224;2.6419;2.726
22.613000;0.1438;-1.1526;2.8602;3.087
22.620000;-0.3070;-2.1845;3.2183;3.902
22.630000;-0.7627;-2.8709;3.7059;4.749
22.641000;-1.0138;-3.1421;3.9270;5.130
22.650000;-0.9712;-2.8028;3.6253;4.684
22.660000;-0.7034;-2.1154;2.8383;3.609
22.670000;-0.2505;-1.4188;1.3578;1.980
22.715000;0.3037;-0.8149;-0.3726;0.946
22.717000;0.7506;-0.3924;-1.7816;1.973
22.718000;0.9852;-0.0543;-2.5785;2.761
22.719000;0.9888;0.1102;-2.6653;2.845
22.721000;0.8478;0.0226;-2.2192;2.376
22.731000;0.6644;-0.1323;-1.3947;1.551
22.741000;0.0036;-0.8232;0.8564;1.188
22.750000;-0.3480;-1.0481;1.3624;1.754
22.763000;-0.6523;-1.0561;1.2365;1.752
22.771000;-0.8778;-0.9675;0.5432;1.415
22.810000;-0.9772;-0.7963;-0.7340;1.459
22.811000;-1.0313;-0.6659;-2.2260;2.542
22.813000;-0.9704;-0.5363;-3.3503;3.529
22.814000;-0.8198;-0.3943;-3.8126;3.920
22.820000;-0.5094;-0.2776;-3.8102;3.854
22.830000;-0.1719;-0.1595;-3.4324;3.440
22.841000;0.1655;-0.0059;-2.9587;2.963
22.850000;0.3958;0.1356;-2.6314;2.664
22.861000;0.4203;0.2058;-2.4541;2.498
22.871000;0.2487;0.1938;-2.3969;2.418
22.883000;0.0291;0.1952;-2.6566;2.664
22.943000;-0.1756;0.2224;-2.9272;2.941
22.945000;-0.3681;0.2929;-2.8297;2.868
22.946000;-0.4410;0.3755;-2.2511;2.324
22.948000;-0.2821;0.6036;-1.5335;1.672
22.949000;-0.0811;0.9838;-0.9568;1.375
22.950000;0.0033;1.3401;-0.7033;1.513
22.951000;-0.0530;1.6021;-0.6350;1.724
22.961000;-0.1858;1.6425;-0.3061;1.681
22.970000;-0.3969;1.3752;0.7066;1.596
22.982000;-0.6232;0.9879;1.9607;2.282
23.040000;-0.8101;0.7623;2.9110;3.116
23.042000;-0.9855;0.6223;3.3506;3.548
23.043000;-1.1868;0.5345;3.4747;3.711
23.044000;-1.5088;0.5769;3.3327;3.704
23.045000;-1.8502;0.8844;2.7578;3.437
23.047000;-1.5465;1.5333;1.5006;2.645
23.050000;-0.5108;2.0758;0.5455;2.206
23.060000;0.6697;2.3971;0.8155;2.619
23.070000;1.6631;2.0718;2.7335;3.812
23.081000;1.9362;1.7168;3.5993;4.433
23.128000;2.2719;1.2612;4.2439;4.976
23.130000;2.3912;0.7336;4.2871;4.963
23.131000;2.1147;0.1266;3.6482;4.219
23.132000;1.5193;-0.4874;2.4593;2.932
23.133000;0.8233;-0.9428;1.0622;1.642
23.142000;0.0709;-1.3209;0.0486;1.324
23.150000;-0.6288;-1.7146;-0.5894;1.919
23.160000;-1.1690;-1.9641;-1.1076;2.540
23.170000;-1.4327;-2.1009;-1.5406;2.973
23.180000;-1.3845;-2.1991;-1.6556;3.081
23.239000;-1.1665;-2.3064;-1.4199;2.949
23.242000;-1.0151;-2.4327;-1.0858;2.851
23.244000;-1.1772;-2.5881;-0.7562;2.942
23.245000;-1.4888;-2.6207;-0.5587;3.065
23.246000;-1.7175;-2.6637;-0.4285;3.198
23.247000;-1.7875;-2.7044;-0.3429;3.260
23.250000;-1.5336;-2.5617;-0.3203;3.003
23.261000;-0.9352;-2.2043;-0.6905;2.492
23.270000;-0.1536;-1.6152;-1.2862;2.071
23.281000;0.5034;-1.0079;-1.7505;2.082
23.326000;0.9500;-0.5508;-2.1317;2.398
23.327000;1.2753;-0.1979;-2.3583;2.688
23.328000;1.4012;0.0703;-2.4298;2.806
23.329000;1.2909;0.2161;-2.4841;2.808
23.331000;1.0879;0.3529;-2.6533;2.889
23.341000;0.8201;0.4304;-2.7738;2.924
23.350000;0.6469;0.5162;-2.7773;2.898
23.361000;0.5903;0.6824;-2.8171;2.958
23.370000;0.5625;0.9375;-2.7359;2.946
23.381000;0.4556;1.1368;-2.5655;2.843
23.439000;0.3852;1.3511;-2.2902;2.687
23.442000;0.2917;1.5282;-1.4767;2.145
23.444000;0.0338;1.4972;-0.9547;1.776
23.445000;-0.0610;1.2747;-0.3021;1.311
23.446000;-0.1446;1.0253;0.5744;1.184
23.448000;-0.1215;0.9289;1.4106;1.693
23.450000;-0.0029;0.9888;2.1901;2.403
23.460000;0.2469;1.2886;2.9010;3.184
23.470000;0.3905;1.5859;3.5237;3.884
23.481000;0.3599;1.8758;4.1602;4.578
23.529000;0.3255;2.0554;4.4255;4.890
23.531000;0.5394;1.8682;4.0565;4.498
23.532000;0.7068;1.5012;3.7576;4.108
23.533000;0.5582;1.1195;4.1312;4.316
23.534000;0.5842;0.9515;4.3275;4.469
23.541000;0.9666;0.8886;3.8492;4.067
23.550000;1.2135;0.5523;3.4528;3.701
23.562000;1.2238;0.0656;2.8612;3.113
23.570000;0.9523;-0.5495;2.1656;2.429
23.581000;0.6880;-1.0570;1.4402;1.914
23.650000;0.5423;-1.3995;0.7568;1.681
23.652000;0.3561;-1.6277;0.1155;1.670
23.653000;0.0809;-1.6763;-0.2590;1.698
23.655000;-0.1199;-1.5920;-0.6959;1.742
23.655000;-0.1506;-1.4983;-1.3789;2.042
23.657000;-0.0992;-1.4154;-1.9885;2.443
23.659000;-0.0824;-1.3278;-2.4130;2.755
23.663000;-0.1178;-1.1695;-2.2154;2.508
23.670000;-0.0907;-1.0327;-1.5461;1.861
23.681000;0.0894;-0.8379;-0.7306;1.115
23.728000;0.3088;-0.5849;-0.1123;0.671
23.729000;0.2955;-0.5078;0.4012;0.711
23.729000;0.1606;-0.4599;0.4570;0.668
23.730000;0.0620;-0.3071;0.2858;0.424
23.731000;0.0717;-0.1329;-0.8544;0.868
23.742000;0.2065;0.2273;-1.7524;1.779
23.750000;0.1488;0.3554;-2.4162;2.447
23.761000;0.1871;0.5009;-2.7226;2.775
23.770000;0.3419;0.6279;-2.7758;2.866
23.783000;0.5264;0.6757;-2.7539;2.884
23.860000;0.5049;0.6659;-2.7250;2.850
23.863000;0.2839;0.6201;-2.7415;2.825
23.865000;-0.0424;0.5743;-2.9185;2.975
23.867000;-0.3530;0.4454;-3.1256;3.177
23.868000;-0.6372;0.3509;-3.2132;3.295
23.869000;-0.9530;0.2804;-3.1177;3.272
23.871000;-1.2522;0.2450;-2.6425;2.934
23.872000;-1.4136;0.1594;-1.7564;2.260
23.875000;-1.3473;0.2520;-0.6757;1.528
23.881000;-1.1415;0.4847;0.0419;1.241
23.896000;-0.9028;0.7436;0.3481;1.220
23.901000;-0.5840;1.0279;0.5385;1.299
23.944000;-0.2324;1.3241;0.8938;1.614
23.945000;0.1097;1.5539;1.3394;2.054
23.946000;0.3424;1.7085;1.7283;2.454
23.947000;0.3909;1.6413;2.1363;2.722
23.951000;0.0196;1.3745;2.8103;3.129
23.961000;-0.5994;1.1307;3.2172;3.462
23.970000;-0.9979;1.1773;2.4695;2.912
23.981000;-0.7958;1.4726;1.6610;2.358
24.039000;-0.1837;1.6708;1.6869;2.381
24.042000;0.4680;1.8457;2.1661;2.884
24.043000;0.9869;2.0478;2.3658;3.281
24.044000;1.3591;1.6640;2.8158;3.542
24.046000;1.3890;0.9531;3.8212;4.176
24.047000;1.0900;0.2700;4.6724;4.805
24.050000;0.6804;-0.3438;4.9203;4.979
24.061000;0.3089;-0.7295;2.8036;2.913
24.070000;-0.3852;-0.8140;1.2459;1.537
24.081000;-0.6512;-0.6540;0.1577;0.936
24.127000;-0.7363;-0.3848;-0.7337;1.108
24.129000;-0.6039;-0.1018;-1.5032;1.623
24.130000;-0.3168;0.0719;-1.9784;2.005
24.131000;0.0223;-0.0314;-2.1067;2.107
24.132000;0.2247;-0.4042;-1.7846;1.843
24.144000;0.1048;-0.9195;-1.3058;1.600
24.151000;-0.1944;-1.3484;-0.7472;1.554
24.162000;-0.5596;-1.7737;-0.2267;1.874
24.170000;-0.8775;-2.1167;0.0898;2.293
24.183000;-1.1471;-2.3665;0.0678;2.631
24.257000;-1.2631;-2.3937;-0.4305;2.741
24.259000;-1.1379;-2.1423;-1.0886;2.659
24.261000;-0.8213;-1.8829;-1.7832;2.720
24.262000;-0.4647;-1.6673;-2.3009;2.879
24.263000;-0.2080;-1.4393;-2.5447;2.931
24.265000;0.0035;-1.1693;-2.6247;2.873
24.265000;0.2182;-0.8316;-2.6603;2.796
24.266000;0.3583;-0.4159;-2.6766;2.732
24.271000;0.4672;0.0529;-2.5069;2.551
24.281000;0.5010;0.3744;-2.4987;2.576
24.290000;0.4710;0.4958;-2.6376;2.725
24.303000;0.3714;0.5436;-2.4550;2.542
24.353000;0.2771;0.7134;-1.8621;2.013
24.354000;0.2044;0.8667;-1.3207;1.593
24.355000;0.0688;0.9577;-0.7713;1.232
24.358000;-0.1439;1.0516;-0.3804;1.128
24.360000;-0.3071;1.1032;-0.3407;1.195
24.362000;-0.3477;1.2110;-0.4557;1.340
24.371000;-0.4560;1.2485;-0.2115;1.346
24.382000;-0.5213;1.0677;0.6246;1.342
24.391000;-0.4282;0.8352;1.6628;1.909
24.432000;-0.1596;1.0009;3.4103;3.558
24.434000;-0.0947;1.4466;3.7214;3.994
24.435000;0.3738;1.9802;3.6505;4.170
24.437000;1.1014;2.0580;3.3696;4.099
24.441000;1.9015;1.7399;3.2096;4.116
24.451000;2.0450;1.1344;3.2947;4.040
24.465000;1.4793;0.3010;3.2311;3.566
24.470000;0.5604;-0.6920;3.6460;3.753
24.514000;-0.2958;-1.7066;4.4080;4.736
24.515000;-0.8555;-2.5218;5.0532;5.712
24.518000;-1.0442;-3.0790;5.3511;6.261
24.519000;-0.8267;-3.2488;5.1889;6.178
24.521000;-0.4749;-2.9844;4.8385;5.705
24.531000;0.0104;-2.2538;3.7474;4.373
24.541000;0.5491;-1.2958;1.9648;2.417
24.550000;0.9607;-0.5009;-0.0176;1.084
24.564000;1.2436;0.0135;-1.6516;2.068
24.570000;1.4244;0.2558;-2.7275;3.088
24.635000;1.4156;0.2810;-3.3025;3.604
24.637000;1.2029;0.1903;-3.6027;3.803
24.639000;0.9058;0.0868;-3.4697;3.587
24.641000;0.6684;-0.0743;-2.7663;2.847
24.644000;0.5035;-0.2802;-1.8024;1.892
24.647000;0.3841;-0.4240;-0.8792;1.049
24.648000;0.2303;-0.5861;-0.3068;0.701
24.653000;0.0952;-0.6584;-0.3013;0.730
24.663000;-0.0040;-0.6938;-0.8685;1.112
24.670000;-0.1734;-0.7286;-1.7849;1.936
24.681000;-0.3645;-0.6524;-2.8325;2.929
24.691000;-0.4660;-0.4168;-3.3121;3.371
24.702000;-0.3345;-0.2302;-3.2951;3.320
24.758000;-0.0309;-0.1258;-3.0674;3.070
24.760000;0.2431;-0.0029;-2.6053;2.617
24.761000;0.2492;0.3469;-2.2947;2.334
24.762000;0.1899;0.3950;-2.0985;2.144
24.764000;0.0976;0.4989;-1.8647;1.933
24.765000;-0.1465;0.6123;-1.3766;1.514
24.770000;-0.2752;0.7282;-0.6285;1.001
24.781000;-0.3226;0.8414;0.2478;0.935
24.791000;-0.1773;1.0697;0.7156;1.299
24.801000;0.0408;1.3673;0.7236;1.548
24.852000;0.1913;1.6477;0.5502;1.748
24.853000;0.3142;1.8077;0.5318;1.910
24.854000;0.4703;1.8222;0.8381;2.060
24.856000;0.5504;1.7609;1.5171;2.389
24.857000;0.5338;1.8557;2.1859;2.917
24.862000;0.2086;1.9224;2.6169;3.254
24.872000;-0.0151;2.0327;2.0885;2.914
24.882000;0.3874;2.2703;0.7996;2.438
24.891000;1.1197;2.4844;0.4430;2.761
24.902000;1.9126;2.7133;1.1907;3.527
24.979000;2.1508;2.4531;2.4825;4.100
24.981000;2.1108;1.6930;3.7366;4.613
24.983000;1.6672;0.6850;5.2397;5.541
24.985000;0.9613;-0.3525;6.4173;6.498
24.986000;0.1494;-1.2252;6.6329;6.747
24.987000;-0.6468;-1.9128;5.6896;6.037
24.988000;-1.0326;-2.1297;3.5844;4.295
24.989000;-1.3227;-1.7726;1.3889;2.612
24.991000;-1.5972;-1.2308;-0.2308;2.030
25.002000;-1.8126;-0.8480;-1.2137;2.340
25.016000;-1.8651;-0.7471;-1.8096;2.704
25.021000;-1.6106;-0.7570;-2.1987;2.829
25.067000;-1.0074;-0.8783;-2.2505;2.617
25.069000;-0.3404;-1.0114;-1.9296;2.205
25.070000;0.0366;-1.1031;-1.4867;1.852
25.073000;-0.3566;-1.5639;-0.4203;1.658
25.074000;-0.6459;-1.8619;-0.0885;1.973
25.081000;-0.8333;-2.0765;-0.0636;2.238
25.090000;-0.8792;-2.1908;-0.3103;2.381
25.101000;-0.7810;-2.1390;-1.0125;2.492
25.150000;-0.6246;-1.9411;-2.0100;2.863
25.152000;-0.5161;-1.6509;-2.8237;3.311
25.154000;-0.4109;-1.3780;-3.1593;3.471
25.156000;-0.2558;-1.1582;-3.2495;3.459
25.158000;-0.1144;-1.0630;-3.1869;3.361
25.162000;0.0017;-0.9515;-2.8772;3.030
25.170000;0.2514;-0.7608;-2.5271;2.651
25.183000;0.5244;-0.5084;-2.2018;2.320
25.190000;0.5870;-0.2265;-2.0345;2.130
25.234000;0.3742;-0.0131;-2.2510;2.282
25.236000;0.0744;0.1448;-2.3874;2.393
25.237000;-0.2185;0.3020;-2.4827;2.511
25.239000;-0.5102;0.4937;-2.0033;2.125
25.242000;-0.6324;0.8231;-1.6174;1.922
25.251000;-0.8381;1.0623;-0.9717;1.666
25.266000;-1.0395;1.3199;-0.4640;1.743
25.271000;-1.0755;1.4628;-0.2021;1.827
25.317000;-0.8224;1.5596;0.2537;1.781
25.319000;-0.3943;1.6283;1.1289;2.020
25.320000;0.0610;1.6121;2.3389;2.841
25.322000;0.4141;1.5944;3.5497;3.913
25.323000;0.4224;1.6959;4.6643;4.981
25.331000;0.2559;1.9424;5.2271;5.582
25.340000;0.2705;2.0890;4.9252;5.357
25.351000;0.5336;1.9557;4.3883;4.834
25.369000;1.0196;1.5837;4.3505;4.741
25.373000;1.3694;1.3359;4.6093;4.991
25.435000;1.4415;1.0832;4.4162;4.770
25.437000;1.2968;0.4803;4.1883;4.411
25.439000;0.4756;-1.3330;4.0634;4.303
25.440000;0.0984;-1.9541;3.7666;4.244
25.442000;-0.1667;-2.4369;3.1374;3.976
25.444000;-0.2819;-2.5923;2.4793;3.598
25.445000;-0.1024;-2.1920;1.8362;2.861
25.451000;0.3283;-1.4553;1.0108;1.802
25.465000;0.7640;-0.6970;-0.0482;1.035
25.471000;1.0964;-0.1266;-1.1941;1.626
25.515000;1.2019;0.1986;-2.2182;2.531
25.517000;1.2105;0.2342;-3.0040;3.247
25.519000;1.0191;0.1813;-3.2334;3.395
25.520000;0.6262;0.0601;-2.8043;2.874
25.521000;0.1845;-0.1806;-1.8401;1.858
25.531000;-0.0981;-0.3183;-0.8603;0.923
25.540000;-0.2830;-0.4083;-0.3799;0.625
25.550000;-0.4300;-0.4458;-0.5489;0.828
25.565000;-0.5248;-0.3510;-1.1156;1.282
25.570000;-0.4922;-0.2425;-1.9262;2.003
25.627000;-0.4479;-0.1759;-2.8180;2.859
25.628000;-0.3797;-0.0673;-3.4013;3.423
25.630000;-0.2609;0.0982;-3.5580;3.569
25.632000;-0.0437;0.2630;-3.3982;3.409
25.633000;0.1116;0.3222;-2.8599;2.880
25.634000;0.1218;0.1759;-2.2120;2.222
25.640000;-0.0687;-0.1085;-1.8223;1.827
25.650000;-0.4157;-0.3807;-1.7806;1.868
25.665000;-0.7518;-0.4848;-1.9059;2.105
25.670000;-1.0398;-0.3814;-1.9215;2.218
25.715000;-1.0619;-0.0890;-1.7426;2.043
25.717000;-0.8631;0.2320;-1.2376;1.527
25.718000;-0.5025;0.6038;-0.6627;1.028
25.719000;-0.1457;0.9530;-0.4819;1.078
25.721000;0.4482;1.2929;-0.6439;1.512
25.731000;0.5833;1.3252;-0.2638;1.472
25.740000;0.4837;1.0491;0.6450;1.323
25.750000;0.3550;0.8410;1.4580;1.720
25.766000;0.2193;0.7551;2.2207;2.356
25.770000;-0.0903;0.7553;2.9596;3.056
25.833000;-0.4829;0.8712;3.1367;3.291
25.834000;-0.6421;1.1385;2.2805;2.629
25.836000;-0.2433;1.7704;1.1939;2.149
25.837000;0.2806;2.2578;0.8572;2.431
25.838000;0.7014;2.3788;1.3417;2.820
25.839000;0.8597;1.9585;2.4501;3.252
25.841000;0.8678;1.1420;3.6470;3.919
25.851000;0.5817;0.2695;4.5474;4.592
25.866000;-0.0196;-0.5829;5.4711;5.502
25.871000;-0.5813;-1.2367;5.4493;5.618
25.919000;-0.8508;-1.3720;4.1224;4.427
25.922000;-0.7342;-0.9478;2.1350;2.449
25.924000;-0.6591;-0.3770;0.3456;0.834
25.925000;-0.7608;0.1337;-0.9416;1.218
25.926000;-0.8201;0.3495;-1.7942;2.003
25.932000;-0.6809;0.2931;-2.3280;2.443
25.940000;-0.4084;0.0544;-2.5915;2.624
25.951000;-0.2478;-0.3713;-2.3619;2.404
25.967000;-0.2110;-0.8851;-1.6225;1.860
25.971000;-0.3077;-1.3423;-0.7660;1.576
26.036000;-0.4574;-1.6262;-0.2940;1.715
26.038000;-0.6609;-1.9023;0.1111;2.017
26.039000;-0.7618;-2.0495;0.0728;2.188
26.043000;-0.7367;-2.0824;-0.3320;2.234
26.045000;-0.5682;-1.9157;-1.2065;2.334
26.047000;-0.4179;-1.6975;-2.1911;2.803
26.051000;-0.2430;-1.5060;-2.9696;3.338
26.053000;0.1669;-1.0708;-3.5340;3.696
26.067000;0.3173;-0.7161;-3.2405;3.334
26.071000;0.4634;-0.3534;-2.8503;2.909
26.118000;0.5986;-0.0643;-2.3655;2.441
26.119000;0.7013;0.1492;-2.0194;2.143
26.121000;0.8046;0.3218;-1.8818;2.072
26.123000;0.7380;0.5420;-1.9812;2.183
26.125000;0.5727;0.8145;-2.0003;2.234
26.131000;0.3273;0.9985;-1.7441;2.036
26.141000;0.0821;1.0843;-1.0152;1.488
26.151000;-0.0610;1.1583;-0.0350;1.160
26.163000;-0.0831;1.2639;0.9223;1.567
26.170000;0.0237;1.3574;1.7831;2.241
26.184000;0.3856;1.3997;2.3034;2.723
26.190000;0.7777;1.4222;2.4802;2.963
26.264000;0.9856;1.3338;2.7246;3.190
26.266000;0.9138;1.1128;2.9242;3.259
26.268000;0.5915;0.9910;3.4598;3.647
26.271000;0.2165;1.0227;4.1266;4.257
26.272000;0.0530;1.2112;4.3650;4.530
26.273000;0.2642;1.4195;3.9280;4.185
26.274000;1.0575;1.4943;3.0620;3.568
26.275000;1.8328;1.3419;2.6083;3.459
26.281000;1.9528;1.0658;2.6701;3.475
26.291000;1.6851;0.5870;2.8496;3.362
26.301000;1.3329;-0.1903;3.3171;3.580
26.311000;0.8719;-1.0784;3.8017;4.047
26.351000;0.3628;-1.8575;3.6105;4.076
26.353000;-0.1158;-2.4604;2.9259;3.825
26.355000;-0.2686;-2.6662;2.2555;3.503
26.356000;-0.0385;-2.4527;1.5160;2.884
26.361000;0.3710;-1.9509;0.6142;2.079
26.370000;0.7374;-1.3484;-0.3945;1.587
26.384000;1.0474;-0.8360;-1.3232;1.883
26.390000;1.1826;-0.6329;-2.5923;2.919
26.434000;0.8226;-0.7917;-2.7044;2.936
26.436000;0.3585;-0.9957;-2.3542;2.581
26.438000;-0.0120;-1.1657;-1.5710;1.956
26.439000;-0.2863;-1.2187;-0.7963;1.484
26.441000;-0.4017;-1.0385;-0.2386;1.139
26.450000;-0.4180;-0.8537;-0.1941;0.970
26.460000;-0.2987;-0.5892;-0.6433;0.922
26.470000;-0.0840;-0.2467;-1.4188;1.442
26.487000;0.1442;0.1570;-2.1126;2.123
26.556000;0.3237;0.5283;-2.5973;2.670
26.557000;0.3611;0.7102;-2.6513;2.768
26.559000;0.4025;0.8300;-2.3155;2.493
26.561000;0.5434;0.8724;-2.0093;2.257
26.564000;0.6176;0.8568;-1.6685;1.975
26.564000;0.4720;0.7412;-1.2303;1.512
26.565000;0.1886;0.6492;-1.0892;1.282
26.566000;-0.1378;0.6296;-1.0218;1.208
26.570000;-0.4182;0.6537;-0.8396;1.143
26.583000;-0.6070;0.7205;-0.6679;1.155
26.591000;-0.8431;0.9224;-0.4930;1.343
26.635000;-1.1349;1.1558;-0.3098;1.649
26.637000;-1.1984;1.3057;-0.2150;1.785
26.638000;-0.9559;1.3373;-0.2637;1.665
26.639000;-0.7673;1.1574;-0.1652;1.398
26.641000;-0.8347;0.8503;0.3492;1.242
26.651000;-1.1166;0.5625;1.0608;1.640
26.661000;-1.4482;0.3945;1.5570;2.163
26.671000;-1.5198;0.4286;1.7138;2.330
26.686000;-1.1583;0.6815;1.4574;1.982
26.691000;-0.3976;1.0643;1.0393;1.540
26.765000;0.4500;1.3650;1.2699;1.918
26.766000;1.1046;1.4975;2.2076;2.887
26.768000;2.1070;1.0176;5.0334;5.551
26.770000;2.2091;0.5958;6.4487;6.843
26.772000;1.8144;0.0039;7.2203;7.445
26.773000;1.0655;-0.6068;6.6190;6.732
26.774000;0.2117;-0.9480;4.4012;4.507
26.775000;-0.3272;-0.8870;1.8819;2.106
26.782000;-0.6863;-0.4905;-0.1248;0.853
26.790000;-0.8537;-0.1211;-1.6356;1.849
26.803000;-0.9459;0.2529;-2.8190;2.984
26.811000;-0.8942;0.4634;-3.7254;3.859
26.854000;-0.7278;0.3256;-4.0766;4.154
26.856000;-0.5849;-0.1549;-3.6835;3.733
26.857000;-0.6332;-0.7723;-2.6187;2.803
26.859000;-0.9111;-1.3774;-1.3463;2.131
26.860000;-1.2368;-1.9047;-0.3859;2.304
26.870000;-1.4211;-2.2025;0.0450;2.622
26.884000;-1.4783;-2.3527;-0.0400;2.779
26.890000;-1.3204;-2.2665;-0.4914;2.669
26.935000;-0.9302;-1.9296;-1.1509;2.432
26.937000;-0.4269;-1.4933;-1.8195;2.392
26.938000;-0.0283;-1.0700;-2.3152;2.551
26.939000;0.1724;-0.8622;-2.4872;2.638
26.941000;0.2026;-0.8356;-2.4847;2.629
26.951000;0.1550;-0.8189;-2.2835;2.431
26.960000;0.2302;-0.7507;-1.9434;2.096
26.970000;0.5194;-0.5367;-1.5541;1.724
26.986000;0.9082;-0.2754;-1.1399;1.483
26.991000;1.2398;0.0382;-0.6356;1.394
27.056000;1.5664;0.3899;-0.2338;1.631
27.058000;1.7346;0.7483;-0.0231;1.889
27.059000;1.7407;1.1115;-0.1906;2.074
27.060000;1.6402;1.3668;-0.5852;2.214
27.062000;1.3946;1.3404;-0.7549;2.076
27.063000;0.7867;0.5972;0.3305;1.042
27.064000;0.3488;0.1060;1.9427;1.977
27.071000;-0.0619;-0.1516;3.4656;3.469
27.086000;-0.3045;-0.0540;4.6801;4.690
27.090000;-0.0548;0.3522;5.4646;5.476
27.136000;0.8712;0.9900;4.8067;4.984
27.138000;1.9018;1.3106;3.2752;4.008
27.140000;2.2914;1.1993;2.1635;3.372
27.141000;1.6969;0.8584;1.1838;2.240
27.142000;0.4711;0.2507;0.2805;0.603
27.151000;-0.5210;-0.5836;0.0162;0.782
27.160000;-0.9710;-1.5228;0.2563;1.824
27.170000;-1.0537;-2.2089;0.9205;2.615
27.185000;-0.9394;-2.5366;1.9098;3.311
27.190000;-0.5750;-2.4317;2.5575;3.576
27.247000;-0.0452;-1.9929;2.8729;3.497
27.249000;0.5353;-1.4536;2.6820;3.097
27.251000;1.0615;-0.9945;1.7389;2.267
27.254000;1.3631;-0.5869;0.4448;1.549
27.255000;1.4042;-0.2568;-0.6276;1.559
27.257000;1.1739;-0.1102;-0.9988;1.545
27.262000;0.8298;-0.2305;-0.6386;1.072
27.271000;0.5167;-0.3974;0.2040;0.683
27.287000;0.2611;-0.5869;1.1543;1.321
27.291000;0.1005;-0.6038;1.5578;1.674
27.371000;-0.0891;-0.5249;1.4210;1.518
27.373000;-0.3187;-0.3440;0.8251;0.949
27.374000;-0.5063;-0.2089;0.1245;0.562
27.375000;-0.5972;-0.0337;-0.6822;0.907
27.376000;-0.6169;0.1614;-1.3481;1.491
27.377000;-0.5772;0.3552;-1.9052;2.022
27.378000;-0.5077;0.4519;-2.2179;2.320
27.379000;-0.5255;0.4332;-2.2580;2.358
27.383000;-0.5756;0.2963;-2.3771;2.464
27.391000;-0.8590;0.1024;-2.2555;2.416
27.403000;-1.0841;-0.0203;-1.7564;2.064
27.410000;-1.3299;-0.2072;-0.9383;1.641
27.453000;-1.5043;-0.2920;-0.3240;1.566
27.455000;-1.6441;-0.1214;-0.0042;1.649
27.456000;-1.7806;0.0977;-0.2575;1.802
27.457000;-1.7711;0.1584;-0.7313;1.923
27.460000;-1.6723;-0.0389;-1.1732;2.043
27.470000;-1.6053;-0.3051;-1.2969;2.086
27.485000;-1.6507;-0.5628;-0.6346;1.856
27.490000;-1.6408;-0.7480;0.9245;2.026
27.534000;-1.4591;-0.8059;2.5406;3.039
27.536000;-1.0889;-0.6098;3.3464;3.572
27.537000;-0.5141;-0.3768;2.8795;2.949
27.538000;0.2294;-0.2924;2.0197;2.054
27.541000;1.0659;-0.3496;1.4073;1.800
27.551000;1.7489;-0.1927;0.9278;1.989
27.560000;2.2303;0.1844;0.5453;2.303
27.570000;2.7074;0.2444;0.9895;2.893
27.589000;2.8893;-0.3056;2.7462;3.998
27.650000;2.5080;-1.6417;6.2432;6.926
27.652000;1.9752;-1.8932;6.4612;7.017
27.654000;1.4333;-1.9779;5.2248;5.768
27.655000;1.1177;-1.8407;2.6911;3.447
27.656000;0.7868;-1.4718;0.1392;1.675
27.657000;0.3492;-1.0237;-1.7421;2.051
27.660000;-0.0540;-0.7836;-2.8900;2.995
27.670000;-0.4165;-0.9329;-3.0469;3.214
27.686000;-0.7806;-1.3937;-1.6630;2.306
27.690000;-0.9406;-2.0074;0.3418;2.243
27.737000;-0.9169;-2.4364;2.0053;3.286
27.738000;-0.9583;-2.6192;3.6260;4.574
27.740000;-0.5983;-2.4731;3.3338;4.194
27.742000;-0.0716;-1.7880;2.0853;2.748
27.743000;0.4150;-1.0371;0.3037;1.158
27.751000;0.5733;-0.5158;-1.1913;1.419
27.760000;0.6101;-0.1141;-2.6390;2.711
27.771000;0.5422;0.0704;-3.6402;3.681
27.786000;0.3824;-0.0780;-3.5480;3.569
27.796000;0.3618;-0.4893;-2.4643;2.538
27.854000;0.4922;-0.8519;-1.0699;1.454
27.857000;0.6408;-1.0017;0.1069;1.194
27.859000;0.7819;-1.0567;0.9469;1.620
27.861000;0.9722;-1.1373;1.1312;1.876
27.864000;0.9319;-1.1772;0.8685;1.735
27.866000;0.6341;-1.1555;0.1021;1.322
27.867000;0.3220;-1.0578;-0.9612;1.465
27.872000;0.0739;-0.9894;-1.8080;2.062
27.886000;-0.2365;-1.1993;-1.9583;2.309
27.891000;-0.5921;-1.3418;-1.1763;1.880
27.939000;-0.8542;-1.2770;0.2351;1.554
27.940000;-0.9705;-1.0675;1.4990;2.080
27.942000;-0.8579;-0.7048;2.1301;2.402
27.942000;-0.4639;-0.2698;1.8838;1.959
27.943000;-0.0613;0.1716;0.8953;0.914
27.951000;0.1400;0.5484;-0.1141;0.577
27.960000;0.2352;0.7980;-0.5712;1.009
27.970000;0.2215;0.8257;-0.3869;0.938
27.987000;-0.0067;0.6925;0.3205;0.763
27.991000;-0.3194;0.5429;1.0332;1.210
28.048000;-0.4949;0.3755;1.6101;1.726
28.049000;-0.4582;0.2265;1.9714;2.037
28.050000;-0.3877;0.1844;2.0491;2.094
28.051000;-0.2959;0.3987;1.4091;1.494
28.052000;-0.0846;0.8839;0.7130;1.139
28.053000;0.6015;1.5305;0.0707;1.646
28.061000;0.6358;1.4741;-0.1249;1.610
28.072000;0.5133;1.4071;-0.1784;1.508
28.080000;0.3484;1.2272;-0.1091;1.280
28.090000;0.1528;0.9101;-0.1112;0.930
28.138000;0.0247;0.6083;-0.3899;0.723
28.140000;-0.0058;0.4882;-0.4956;0.696
28.141000;0.1037;0.5423;-0.5966;0.813
28.142000;0.2270;0.6224;-0.6447;0.924
28.143000;0.2877;0.6446;-0.3418;0.784
28.151000;0.3339;0.6293;-0.2548;0.757
28.160000;0.2583;0.5595;-0.1192;0.628
28.170000;0.0912;0.3966;-0.3772;0.555
28.181000;-0.1673;0.2597;-0.5900;0.666
28.191000;-0.2165;0.1858;-0.6335;0.695
28.255000;-0.0273;0.1692;-0.4918;0.521
28.256000;0.3556;0.2788;-0.1461;0.475
28.257000;0.7806;0.4066;0.2445;0.913
28.258000;1.0804;0.5882;0.7413;1.436
28.259000;1.2070;0.8156;0.8182;1.671
28.259000;1.1994;1.0320;0.7687;1.759
28.261000;1.1989;1.1074;0.5269;1.715
28.271000;1.1471;1.0427;0.1972;1.563
28.287000;0.9273;0.8793;-0.0872;1.281
28.291000;0.5561;0.7561;-0.3632;1.006
28.338000;0.2734;0.6562;-0.5608;0.905
28.339000;0.0819;0.5464;-0.7504;0.932
28.340000;-0.0216;0.5140;-0.7175;0.883
28.342000;-0.0291;0.4964;-0.6792;0.842
28.343000;-0.0117;0.4890;-0.6924;0.848
28.350000;-0.0746;0.4368;-0.7093;0.836
28.361000;-0.2144;0.2617;-0.7056;0.783
28.371000;-0.3120;0.0944;-0.7360;0.805
28.381000;-0.1493;0.0669;-0.6688;0.689
28.392000;-0.0005;0.1415;-0.4959;0.516
28.456000;0.1267;0.3119;-0.3061;0.455
28.457000;0.1588;0.4281;-0.2759;0.534
28.458000;0.1203;0.5173;-0.3325;0.627
28.459000;0.0239;0.6217;-0.3077;0.694
28.459000;-0.0474;0.6583;-0.1472;0.676
28.460000;-0.1142;0.6104;-0.0361;0.622
28.461000;-0.2237;0.5254;0.1629;0.594
28.470000;-0.3274;0.4841;0.3816;0.698
28.480000;-0.3946;0.4348;0.6630;0.886
28.491000;-0.4332;0.3603;0.7506;0.939
28.537000;-0.4865;0.3609;0.6076;0.858
28.538000;-0.5605;0.4271;0.4121;0.816
28.539000;-0.5536;0.5074;0.1943;0.776
28.540000;-0.4333;0.6101;-0.0083;0.748
28.541000;-0.2913;0.7704;-0.1024;0.830
28.551000;-0.1863;0.9004;-0.1262;0.928
28.561000;-0.1966;0.9368;0.0429;0.958
28.571000;-0.2406;0.8474;0.1215;0.889
28.582000;-0.2816;0.6912;0.2036;0.774
28.592000;-0.3195;0.5526;0.2456;0.684
28.674000;-0.3707;0.4219;0.2146;0.601
28.676000;-0.3918;0.3576;0.1263;0.545
28.677000;-0.4054;0.3233;0.0921;0.527
28.678000;-0.3926;0.2764;0.0201;0.481
28.679000;-0.3851;0.2725;-0.0282;0.473
28.681000;-0.4021;0.2829;0.0415;0.493
28.682000;-0.4130;0.2504;0.0596;0.487
28.683000;-0.3842;0.2448;-0.1134;0.469
28.684000;-0.3478;0.2914;-0.2847;0.536
28.691000;-0.2428;0.3699;-0.3356;0.555
28.709000;-0.1470;0.3611;-0.4602;0.603
28.713000;-0.0645;0.3997;-0.4230;0.586
28.760000;-0.0169;0.4105;-0.3083;0.514
28.762000;0.0133;0.4322;-0.2552;0.502
28.763000;0.0046;0.4296;-0.3484;0.553
28.765000;-0.0492;0.4156;-0.4861;0.641
28.768000;-0.1571;0.4499;-0.3527;0.593
28.771000;-0.1687;0.3585;-0.2350;0.461
28.781000;-0.1730;0.2130;-0.0681;0.283
28.791000;-0.2406;0.1610;0.1079;0.309
28.839000;-0.2833;0.1925;0.2519;0.425
28.841000;-0.2956;0.2480;0.5327;0.658
28.842000;-0.2452;0.2684;0.7495;0.833
28.843000;-0.2377;0.2410;0.7107;0.787
28.844000;-0.2556;0.2552;0.5270;0.639
28.850000;-0.2768;0.2734;0.3410;0.517
28.861000;-0.2106;0.2760;0.2172;0.410
28.871000;-0.0975;0.3442;0.2446;0.433
28.881000;0.0392;0.4480;0.4101;0.609
28.892000;0.2067;0.5722;0.4439;0.753
28.956000;0.3136;0.6722;0.4077;0.846
28.957000;0.3017;0.6577;0.3351;0.797
28.958000;0.2801;0.6619;0.2164;0.751
28.959000;0.3454;0.6509;0.0886;0.742
28.960000;0.4492;0.5135;-0.0642;0.685
28.961000;0.5251;0.4251;-0.1031;0.683
28.962000;0.6650;0.4746;0.1379;0.829
28.971000;0.8317;0.4568;0.2957;0.994
28.981000;0.8683;0.4730;0.4448;1.084
28.990000;0.6488;0.4003;0.5294;0.928
29.036000;0.4051;0.2642;0.1993;0.523
29.037000;0.1726;0.1343;-0.2958;0.368
29.038000;-0.1099;0.0411;-0.7610;0.770
29.039000;-0.3237;-0.0973;-1.0601;1.113
29.041000;-0.3115;-0.2527;-0.6464;0.761
29.051000;-0.1890;-0.2124;-0.2842;0.402
29.061000;-0.1614;-0.1817;0.0935;0.260
29.071000;-0.1182;-0.1892;0.3459;0.412
29.081000;-0.0860;-0.2476;0.3464;0.434
29.091000;-0.0582;-0.2818;0.1930;0.347
29.169000;-0.0406;-0.1955;0.0045;0.200
29.171000;0.0015;-0.0244;-0.0508;0.056
29.173000;0.0732;0.1474;0.0927;0.189
29.174000;0.0988;0.2105;0.3296;0.403
29.175000;0.0406;0.2647;0.5281;0.592
29.176000;-0.0934;0.2405;0.6038;0.657
29.177000;-0.1735;0.1688;0.4530;0.514
29.177000;-0.2138;0.1045;0.1838;0.301
29.181000;-0.2276;0.1575;-0.1496;0.315
29.191000;-0.2367;0.2964;-0.3552;0.520
29.205000;-0.1594;0.3819;-0.2215;0.469
29.210000;-0.0372;0.4201;0.0072;0.422
29.254000;-0.0800;0.3249;0.3538;0.487
29.256000;-0.0399;0.5095;0.3864;0.641
29.257000;-0.1112;0.4526;0.6393;0.791
29.258000;-0.1548;0.2895;0.5130;0.609
29.261000;-0.2218;0.1241;0.3288;0.416
29.271000;-0.3737;-0.0035;-0.0224;0.374
29.280000;-0.5339;-0.0328;-0.2940;0.610
29.291000;-0.6216;0.0433;-0.4778;0.785
29.339000;-0.5908;0.0747;-0.4282;0.733
29.341000;-0.4196;0.0941;-0.2531;0.499
29.342000;-0.2430;0.1257;-0.0435;0.277
29.343000;-0.1178;0.0861;0.1455;0.206
29.344000;-0.0678;0.0822;0.2304;0.254
29.351000;-0.0722;0.0448;0.2531;0.267
29.361000;-0.0277;0.0636;0.0724;0.100
29.371000;0.0493;0.1778;-0.1549;0.241
29.380000;0.1279;0.2606;-0.1522;0.328
29.391000;0.2060;0.2815;0.0262;0.350
29.462000;0.3053;0.2970;0.3203;0.533
29.464000;0.2846;0.2754;0.3989;0.562
29.465000;0.1714;0.2904;0.0350;0.339
29.466000;-0.0689;0.2495;-0.2577;0.365
29.467000;-0.2027;0.1261;-0.4346;0.496
29.469000;-0.2072;-0.0169;-0.5178;0.558
29.470000;-0.2031;-0.0914;-0.3064;0.379
29.472000;-0.1480;-0.0761;-0.0603;0.177
29.481000;-0.0698;0.0084;0.1351;0.152
29.491000;0.0240;0.0943;0.1445;0.174
29.539000;0.0739;0.1780;0.0254;0.194
29.541000;0.0447;0.1697;-0.0251;0.177
29.541000;0.0587;0.1244;-0.0397;0.143
29.542000;0.1542;0.1118;-0.0305;0.193
29.542000;0.2490;0.0929;0.0225;0.267
29.552000;0.3092;0.0560;0.0971;0.329
29.561000;0.3517;0.1072;0.0146;0.368
29.571000;0.4062;0.3163;-0.0902;0.523
29.581000;0.3848;0.4382;-0.4574;0.741
29.592000;0.3585;0.4640;-0.4912;0.765
29.668000;0.2961;0.3652;-0.1792;0.503
29.669000;0.1949;0.1266;0.2649;0.352
29.670000;-0.0085;-0.1702;0.7011;0.721
29.671000;-0.2225;-0.3990;0.9020;1.011
29.672000;-0.3303;-0.4431;0.7963;0.969
29.673000;-0.2744;-0.2430;0.2409;0.439
29.674000;-0.1978;0.0069;-0.3561;0.407
29.675000;-0.0999;0.1707;-0.6733;0.702
29.681000;0.0294;0.2044;-0.7702;0.797
29.691000;0.0585;0.1770;-0.5337;0.565
29.705000;-0.0747;0.1568;-0.2575;0.311
29.711000;-0.1104;0.1128;-0.2559;0.301
29.755000;-0.1481;0.0334;-0.0549;0.161
29.757000;-0.1704;0.0315;0.1125;0.207
29.758000;-0.0278;0.0557;0.1222;0.137
29.759000;0.1127;0.1865;0.1416;0.260
29.761000;0.2671;0.3526;0.1648;0.472
29.771000;0.5132;0.4350;0.3227;0.746
29.780000;0.7457;0.5070;0.5353;1.049
29.793000;0.8345;0.6085;0.6305;1.210
29.842000;0.8034;0.6455;0.5259;1.157
29.844000;0.6482;0.5365;0.3325;0.905
29.845000;0.4241;0.3996;0.2567;0.637
29.846000;0.0733;0.1768;0.2153;0.288
29.846000;-0.2083;-0.0466;0.2922;0.362
29.854000;-0.2645;-0.1972;0.5685;0.657
29.860000;-0.1807;-0.2810;0.8893;0.950
29.870000;-0.0585;-0.3079;1.0676;1.113
29.881000;0.0307;-0.2525;0.9114;0.946
29.891000;0.1243;-0.0925;0.7615;0.777
29.953000;0.2726;0.0162;0.4913;0.562
29.955000;0.3669;0.0410;0.0746;0.377
29.956000;0.2524;0.0807;-0.4057;0.485
29.957000;0.0156;0.0320;-0.5449;0.546
29.958000;-0.1512;-0.1114;-0.4812;0.517
29.958000;-0.2598;-0.2748;-0.1655;0.413
29.962000;-0.3717;-0.3369;0.0268;0.502
29.971000;-0.4143;-0.1763;0.1533;0.476
29.981000;-0.3719;0.0122;0.2248;0.435
29.991000;-0.3016;0.1634;0.1808;0.388
30.042000;-0.2117;0.3952;-0.0132;0.448
30.043000;-0.0386;0.6662;-0.2808;0.724
30.044000;0.1737;0.9112;-0.5274;1.067
30.045000;0.3655;0.9893;-0.6085;1.218
30.045000;0.4670;0.8722;-0.0033;0.989
30.052000;0.3910;0.6236;0.4703;0.873
30.061000;0.2798;0.4051;0.7542;0.901
30.071000;0.2637;0.1888;1.0060;1.057
30.081000;0.2481;0.0450;1.2519;1.277
30.091000;0.2519;0.0908;1.1320;1.163
30.165000;0.2346;0.0993;0.8450;0.883
30.167000;0.1864;0.0389;0.3489;0.397
30.168000;0.0968;-0.0178;-0.2089;0.231
30.169000;0.0280;-0.0145;-0.6299;0.631
30.170000;0.0333;0.0043;-0.7328;0.734
30.171000;0.0805;-0.0661;-0.5554;0.565
30.172000;0.0318;-0.2507;-0.2877;0.383
30.174000;-0.1620;-0.4517;-0.0753;0.486
30.181000;-0.3512;-0.5847;0.2111;0.714
30.190000;-0.3865;-0.6756;0.5630;0.961
30.201000;-0.2495;-0.6602;0.7644;1.040
30.211000;-0.0528;-0.4906;0.7179;0.871
30.259000;0.1406;-0.2810;0.3515;0.471
30.261000;0.3816;0.0021;-0.1680;0.417
30.262000;0.4731;0.2598;-0.4046;0.675
30.263000;0.3926;0.3081;-0.4617;0.680
30.264000;0.1749;0.1639;-0.3293;0.407
30.271000;-0.0676;-0.0455;0.0134;0.083
30.281000;-0.2352;-0.1930;0.3487;0.463
30.293000;-0.3219;-0.1635;0.4489;0.576
30.343000;-0.2712;0.0221;0.2815;0.391
30.344000;-0.1523;0.3210;-0.0007;0.355
30.345000;-0.0389;0.5059;-0.2118;0.550
30.347000;0.0585;0.5459;-0.0982;0.558
30.348000;0.1008;0.5367;-0.0015;0.546
30.350000;0.0560;0.4922;-0.0275;0.496
30.361000;-0.1590;0.1530;-0.0275;0.222
30.371000;-0.2300;0.0666;-0.1981;0.311
30.381000;-0.1989;0.0966;-0.1902;0.292
30.391000;-0.0739;0.1218;0.0104;0.143
30.401000;0.0500;0.0611;0.3641;0.373
30.457000;0.1151;-0.0067;0.6623;0.672
30.458000;0.1026;-0.0445;0.6570;0.666
30.459000;0.0682;0.0129;0.4653;0.470
30.460000;0.0648;0.0415;0.2179;0.231
30.462000;0.1715;0.2078;0.0141;0.270
30.462000;0.3050;0.2886;-0.1676;0.452
30.471000;0.4435;0.3537;-0.1781;0.595
30.480000;0.5339;0.3639;-0.0904;0.652
30.491000;0.5788;0.3349;0.0674;0.672
30.537000;0.4517;0.2518;0.3266;0.612
30.538000;0.2005;0.0658;0.4265;0.476
30.539000;-0.0416;-0.1162;0.3572;0.378
30.540000;-0.0731;-0.1725;0.1566;0.244
30.541000;-0.0246;-0.0898;-0.1481;0.175
30.551000;0.0016;0.0851;-0.4335;0.442
30.561000;0.0003;0.2127;-0.4225;0.473
30.571000;0.0673;0.2296;-0.2151;0.322
30.581000;0.1459;0.1733;0.0082;0.227
30.591000;0.1583;0.0689;0.3322;0.374
30.607000;0.1179;0.0367;0.2506;0.279
30.611000;0.1071;0.0411;0.2433;0.269
30.686000;0.1246;0.0567;0.2519;0.287
30.688000;0.1218;0.0152;0.2164;0.249
30.689000;0.1098;-0.0065;0.2349;0.259
30.690000;0.0741;0.0793;0.0247;0.111
30.690000;0.0213;0.0732;-0.1234;0.145
30.692000;-0.0632;-0.0085;-0.1904;0.201
30.693000;-0.1371;-0.1079;-0.1766;0.248
30.693000;-0.1833;-0.1699;-0.1404;0.287
30.701000;-0.1447;-0.1470;0.0115;0.207
30.711000;-0.0164;-0.0842;0.3426;0.353
30.725000;0.1100;0.0154;0.6148;0.625
30.730000;0.1282;0.1455;0.6000;0.631
30.773000;0.1846;0.1800;0.7045;0.750
30.774000;0.2393;0.1981;0.3985;0.505
30.775000;0.1571;0.2207;0.0188;0.272
30.776000;0.0170;0.1598;-0.1848;0.245
30.780000;-0.0728;0.0498;-0.1316;0.158
30.791000;-0.1617;-0.0727;0.0240;0.179
30.801000;-0.2225;-0.1048;0.2006;0.317
30.811000;-0.2495;-0.1103;0.4640;0.538
30.859000;-0.2056;-0.0899;0.6978;0.733
30.860000;-0.0224;0.0460;0.7765;0.778
30.862000;0.1810;0.1687;0.7710;0.810
30.863000;0.4099;0.2224;-0.0524;0.469
30.863000;1.3722;0.6096;-4.2325;4.491
30.872000;-0.0150;0.4662;-1.7717;1.832
30.881000;-0.2679;0.2184;1.5405;1.579
30.893000;0.6653;-0.0723;3.0657;3.138
30.900000;0.0647;-0.3493;2.5715;2.596
30.933000;-0.6791;-0.4475;1.2155;1.462
30.934000;-0.8602;-0.4870;0.2927;1.031
30.935000;-0.6317;-0.5269;-0.0873;0.827
30.942000;-0.3577;-0.4424;-0.2732;0.631
