time;ax;ay;az;aT
0.003000;-0.4361;0.2794;0.0137;0.518
0.003000;-0.4086;0.1832;-0.5402;0.702
0.011000;-0.2280;0.0960;-0.6457;0.692
0.020000;-0.0183;0.2464;-0.5790;0.629
0.030000;0.2185;0.5691;-0.4107;0.735
0.041000;0.4440;0.7956;-0.2710;0.951
0.050000;0.4949;0.8745;-0.2059;1.026
0.060000;0.3244;0.8271;-0.1994;0.911
0.071000;0.0656;0.7318;-0.2954;0.792
0.081000;-0.1701;0.6406;-0.4482;0.800
0.090000;-0.2960;0.5457;-0.5281;0.815
0.100000;-0.3388;0.5137;-0.5707;0.839
0.110000;-0.3437;0.5111;-0.4481;0.762
0.121000;-0.2966;0.5131;-0.1894;0.622
0.130000;-0.2095;0.4878;0.0236;0.531
0.140000;-0.1447;0.4758;0.1340;0.515
0.150000;-0.1391;0.4525;0.2320;0.527
0.163000;-0.1281;0.4286;0.3145;0.547
0.171000;-0.1347;0.4226;0.3726;0.579
0.181000;-0.1541;0.4268;0.3823;0.593
0.190000;-0.1610;0.3888;0.3045;0.519
0.200000;-0.1688;0.4032;0.1911;0.477
0.211000;-0.1419;0.4609;0.1112;0.495
0.222000;-0.1192;0.5155;0.1004;0.539
0.230000;-0.1316;0.5779;0.1100;0.603
0.240000;-0.1148;0.6390;0.1126;0.659
0.250000;-0.1188;0.6607;0.0840;0.677
0.262000;-0.1809;0.5511;0.0529;0.582
0.271000;-0.2256;0.5408;-0.0452;0.588
0.281000;-0.3370;0.4724;-0.0830;0.586
0.293000;-0.3142;0.3735;-0.1234;0.503
0.300000;-0.3338;0.3528;-0.1013;0.496
0.310000;-0.3039;0.3119;0.1149;0.450
0.322000;-0.2102;0.1939;0.1120;0.307
0.331000;-0.2136;0.2745;0.0146;0.348
0.340000;-0.2683;0.4334;0.1952;0.546
0.350000;-0.1753;0.4917;-0.0056;0.522
0.360000;-0.0248;0.5473;-0.2125;0.588
0.371000;0.0250;0.5581;-0.2595;0.616
0.380000;0.0232;0.4970;-0.2598;0.561
0.390000;0.0034;0.4264;-0.1683;0.458
0.400000;-0.0233;0.3435;-0.0490;0.348
0.410000;-0.0499;0.2582;0.1177;0.288
0.421000;-0.0440;0.1866;0.3142;0.368
0.430000;0.0134;0.1382;0.4547;0.475
0.440000;0.0202;0.1772;0.5442;0.573
0.450000;-0.0009;0.2877;0.4427;0.528
0.461000;-0.0037;0.3935;0.2628;0.473
0.471000;0.0591;0.4071;0.1879;0.452
0.480000;0.0919;0.3435;0.2181;0.417
0.492000;0.0274;0.2314;0.3293;0.403
0.500000;-0.0835;0.1227;0.4523;0.476
0.510000;-0.1812;0.0277;0.5647;0.594
0.522000;-0.2194;-0.0193;0.6381;0.675
0.530000;-0.2250;-0.0413;0.5857;0.629
0.541000;-0.2338;-0.0333;0.3438;0.417
0.551000;-0.2255;-0.0074;0.1034;0.248
0.562000;-0.2035;0.0460;-0.0191;0.210
0.578000;-0.1915;0.1085;-0.0756;0.233
0.581000;-0.2040;0.2360;-0.0472;0.315
0.590000;-0.1270;0.3331;-0.0016;0.356
0.600000;-0.0447;0.3263;-0.0371;0.331
0.610000;-0.0705;0.1579;-0.0887;0.194
0.622000;-0.1439;0.0492;-0.0780;0.171
0.631000;-0.1640;-0.0815;-0.0413;0.188
0.640000;-0.1406;-0.1646;-0.0066;0.217
0.650000;-0.1333;-0.1526;0.0400;0.207
0.668000;-0.0938;-0.0863;0.0950;0.159
0.674000;-0.0321;-0.0206;0.1361;0.141
0.681000;0.0313;0.0001;0.1638;0.167
0.695000;0.0594;-0.0020;0.1058;0.121
0.701000;0.0583;-0.0412;-0.0181;0.074
0.711000;0.0372;-0.0913;-0.1601;0.188
0.724000;0.0669;-0.1397;-0.2475;0.292
0.730000;0.1208;-0.0906;-0.2304;0.275
0.740000;0.1815;0.0213;-0.2476;0.308
0.750000;0.2265;0.0879;-0.3634;0.437
0.765000;0.2343;0.1002;-0.5472;0.604
0.774000;0.1845;0.0929;-0.7342;0.763
0.780000;0.0644;0.0546;-0.7127;0.718
0.790000;-0.1330;-0.0867;-0.6078;0.628
0.800000;-0.2952;-0.2924;-0.4990;0.649
0.811000;-0.4870;-0.3941;-0.5043;0.804
0.822000;-0.5660;-0.3744;-0.4257;0.801
0.831000;-0.4110;-0.2892;-0.4797;0.695
0.840000;-0.0962;-0.0640;-0.4553;0.470
0.850000;0.1542;0.1266;-0.3433;0.397
0.865000;0.2119;0.1882;-0.1499;0.321
0.873000;0.2493;0.1656;0.0446;0.303
0.881000;0.2048;0.1390;0.3313;0.414
0.890000;0.1101;0.1128;0.5829;0.604
0.900000;0.0659;0.0924;0.7244;0.733
0.911000;0.1298;0.2155;0.6806;0.726
0.923000;-0.0451;0.1427;0.7104;0.726
0.932000;-0.0656;-0.0049;0.4453;0.450
0.941000;-0.2143;0.2123;0.3839;0.488
0.951000;-0.2439;0.2575;0.1426;0.382
0.963000;-0.2607;0.2702;0.1011;0.389
0.981000;-0.2655;0.2707;0.1923;0.425
0.984000;-0.2779;0.2420;0.2016;0.420
0.997000;-0.2898;0.2460;0.0871;0.390
1.002000;-0.2834;0.3052;-0.0169;0.417
1.011000;-0.2290;0.3832;-0.1926;0.486
1.021000;-0.1078;0.4680;-0.2013;0.521
1.030000;0.0134;0.5122;-0.1154;0.525
1.044000;0.1318;0.5461;0.0038;0.562
1.051000;0.2131;0.5312;0.1362;0.588
1.063000;0.2665;0.5096;0.2960;0.647
1.075000;0.2736;0.4249;0.4733;0.692
1.081000;0.2394;0.3339;0.5768;0.708
1.091000;0.1836;0.2716;0.6465;0.725
1.100000;0.1244;0.2572;0.6673;0.726
1.110000;0.1207;0.2418;0.6517;0.706
1.121000;0.1269;0.1985;0.7077;0.746
1.130000;0.0923;0.0957;0.7675;0.779
1.143000;-0.0295;-0.0199;0.7467;0.748
1.151000;-0.1875;-0.1168;0.6994;0.733
1.161000;-0.3186;-0.1290;0.5849;0.678
1.171000;-0.3541;-0.0853;0.3883;0.532
1.181000;-0.3073;0.0538;0.1696;0.355
1.190000;-0.1328;0.2447;0.0150;0.279
1.200000;0.0511;0.3620;0.0084;0.366
1.211000;0.1815;0.4026;0.1364;0.462
1.221000;0.2023;0.3580;0.2045;0.459
1.231000;0.1733;0.2838;0.3001;0.448
1.248000;0.1277;0.1946;0.3081;0.386
1.253000;-0.0157;0.0863;0.2319;0.248
1.267000;-0.0160;0.0855;0.2321;0.248
1.271000;-0.1078;0.0603;0.1663;0.207
1.281000;-0.2031;0.0109;0.0652;0.214
1.291000;-0.1791;0.0324;0.0594;0.191
1.300000;-0.1196;0.0649;0.1022;0.170
1.310000;-0.0170;0.0731;0.1589;0.176
1.321000;0.0563;0.0693;0.1118;0.143
1.330000;0.0345;0.0696;0.0148;0.079
1.346000;-0.0279;0.0652;-0.1254;0.144
1.352000;-0.0855;0.0793;-0.2286;0.257
1.369000;-0.1045;0.0524;-0.2406;0.267
1.372000;-0.1064;0.0863;-0.2606;0.294
1.387000;-0.0887;0.1064;-0.2278;0.267
1.401000;0.0285;0.1166;-0.0375;0.126
1.411000;0.0289;0.0757;0.0497;0.095
1.421000;0.0777;0.0278;0.1069;0.135
1.430000;0.0508;0.0064;0.0934;0.107
1.443000;-0.0224;-0.0115;0.0309;0.040
1.451000;-0.1033;-0.0137;-0.0293;0.108
1.460000;-0.1552;-0.0192;-0.0788;0.175
1.471000;-0.2044;-0.0495;-0.0985;0.232
1.480000;-0.2384;-0.0757;-0.0729;0.261
1.491000;-0.2033;-0.0811;-0.0439;0.223
1.500000;-0.1142;-0.0379;-0.0734;0.141
1.510000;-0.0466;0.0084;-0.0572;0.074
1.522000;0.0114;0.0474;0.0284;0.056
1.530000;0.0628;0.0666;0.1617;0.186
1.544000;0.0979;0.1221;0.2337;0.281
1.550000;0.1374;0.2088;0.2196;0.333
1.561000;0.1655;0.2199;0.1708;0.324
1.571000;0.1663;0.2416;-0.0371;0.296
1.580000;0.1103;0.2667;-0.1419;0.322
1.590000;0.0135;0.2341;-0.0186;0.235
1.600000;0.0017;0.0721;0.0114;0.073
1.611000;-0.0456;0.0725;0.0853;0.121
1.621000;-0.0345;0.0685;0.1865;0.202
1.631000;0.0367;0.0588;0.2187;0.229
1.644000;0.1094;0.0890;0.1080;0.178
1.651000;0.0881;0.1858;-0.0447;0.210
1.661000;0.0580;0.2815;-0.1067;0.307
1.671000;0.0552;0.3674;-0.1874;0.416
1.681000;0.1409;0.4331;-0.2342;0.512
1.692000;0.1632;0.4177;-0.1805;0.483
1.700000;0.1451;0.3228;-0.1168;0.373
1.711000;0.0844;0.2189;-0.0207;0.236
1.722000;0.0084;0.1295;0.1051;0.167
1.732000;-0.0338;0.0817;0.2596;0.274
1.746000;-0.0352;0.0718;0.3618;0.371
1.753000;-0.0248;0.1040;0.4185;0.432
1.766000;-0.0115;0.1254;0.4098;0.429
1.772000;-0.0066;0.0980;0.3924;0.404
1.782000;0.0143;0.0446;0.3793;0.382
1.792000;0.0188;0.0167;0.3538;0.355
1.801000;-0.0058;-0.0039;0.3503;0.350
1.811000;-0.0348;-0.0274;0.3159;0.319
1.822000;-0.0388;-0.0090;0.3018;0.304
1.831000;-0.0330;0.0145;0.2278;0.231
1.845000;-0.0208;0.0341;0.2276;0.231
1.851000;-0.0556;0.0367;0.2977;0.305
1.861000;-0.0883;0.0492;0.3869;0.400
1.870000;-0.1016;0.0703;0.4022;0.421
1.881000;-0.0821;0.0786;0.3009;0.322
1.892000;-0.0614;0.0840;0.1457;0.179
1.900000;-0.0630;0.0766;0.0296;0.103
1.910000;-0.0695;0.0186;-0.0513;0.088
1.921000;-0.0380;0.0044;-0.0446;0.059
1.931000;0.0031;0.0542;0.0051;0.055
1.945000;0.0577;0.1527;0.0288;0.166
1.951000;0.0459;0.1387;-0.0186;0.147
1.962000;-0.0147;0.1138;-0.0975;0.151
1.971000;-0.0753;0.0816;-0.1612;0.196
1.982000;-0.1003;0.0553;-0.1859;0.218
1.994000;-0.0913;0.0223;-0.1653;0.190
2.001000;-0.0521;-0.0092;-0.0717;0.089
2.011000;-0.0466;-0.0443;-0.0045;0.064
2.021000;-0.0537;-0.0798;0.0688;0.118
2.031000;-0.0747;-0.1277;0.0932;0.175
2.050000;-0.1348;-0.1522;0.0531;0.210
2.052000;-0.1674;-0.0645;0.1222;0.217
2.070000;-0.1852;-0.0363;0.1551;0.244
2.073000;-0.1541;-0.0095;0.1211;0.196
2.082000;-0.0781;0.0049;0.2968;0.307
2.093000;0.0799;-0.0055;0.3255;0.335
2.102000;0.1411;0.0373;0.2689;0.306
2.111000;0.1496;0.0992;0.3453;0.389
2.121000;0.1779;0.1295;0.3546;0.417
2.131000;0.2377;0.1359;0.3870;0.474
2.147000;0.2798;0.1416;0.3463;0.467
2.153000;0.2471;0.1589;0.2524;0.387
2.165000;0.1864;0.1541;0.2410;0.341
2.171000;0.1836;0.1518;0.3457;0.420
2.181000;0.2014;0.1410;0.4264;0.492
2.192000;0.2200;0.1744;0.3858;0.477
2.201000;0.1655;0.2662;0.3384;0.461
2.212000;0.1042;0.3477;0.3422;0.499
2.220000;0.1047;0.4149;0.2076;0.476
2.231000;0.1561;0.4813;0.1355;0.524
2.247000;0.2051;0.5339;0.1130;0.583
2.252000;0.2152;0.4676;0.0142;0.515
2.267000;-0.0642;0.2411;-0.0241;0.251
2.271000;-0.2644;0.1462;-0.0395;0.305
2.281000;-0.3804;0.0790;0.0354;0.390
2.291000;-0.4390;0.0811;0.0885;0.455
2.301000;-0.4389;0.1383;0.1154;0.474
2.311000;-0.3961;0.1792;0.1345;0.455
2.321000;-0.3473;0.1534;0.0613;0.385
2.330000;-0.2926;0.1725;0.1195;0.360
2.341000;-0.2856;0.1463;0.1849;0.370
2.351000;-0.2905;0.0738;0.2879;0.416
2.364000;-0.3353;-0.0288;0.4127;0.533
2.371000;-0.4221;-0.1488;0.4793;0.656
2.388000;-0.4556;-0.2062;0.4398;0.666
2.392000;-0.3905;-0.1666;0.3063;0.524
2.400000;-0.2614;-0.0237;0.1388;0.297
2.412000;-0.1259;0.1066;-0.0074;0.165
2.421000;-0.0250;0.2062;-0.1139;0.237
2.430000;0.0300;0.2317;-0.1973;0.306
2.442000;0.0624;0.1890;-0.1758;0.266
2.450000;0.0900;0.0858;-0.0766;0.146
2.462000;0.0967;-0.0275;-0.0164;0.102
2.472000;0.0454;-0.0535;0.0938;0.117
2.483000;-0.0401;-0.1116;0.1359;0.180
2.509000;-0.0774;-0.1507;0.1232;0.209
2.512000;-0.0995;-0.1510;0.0055;0.181
2.513000;-0.1546;-0.1327;-0.2197;0.300
2.521000;-0.1736;-0.0899;-0.4014;0.446
2.533000;-0.1961;-0.0817;-0.5809;0.619
2.551000;-0.1969;-0.0613;-0.5719;0.608
2.553000;-0.1419;-0.0629;-0.4375;0.464
2.576000;-0.0208;-0.0795;-0.2046;0.220
2.578000;0.0767;-0.0359;0.0726;0.112
2.581000;0.1597;0.0379;0.4144;0.446
2.594000;0.2333;0.0481;0.5900;0.636
2.601000;0.2270;0.0222;0.3450;0.414
2.612000;0.1394;0.0775;0.2075;0.262
2.621000;0.0015;0.0892;0.0195;0.091
2.633000;-0.0154;0.0937;-0.1685;0.193
2.644000;-0.0151;0.0950;-0.2375;0.256
2.651000;0.0106;0.1191;-0.2747;0.300
2.665000;0.0537;0.1567;-0.3539;0.391
2.671000;0.0923;0.2007;-0.3262;0.394
2.693000;0.0690;0.1617;-0.3321;0.376
2.696000;-0.0735;0.0907;-0.3013;0.323
2.701000;-0.2754;-0.0101;-0.2057;0.344
2.715000;-0.3669;-0.0481;-0.1760;0.410
2.721000;-0.3334;-0.0566;-0.1022;0.353
2.731000;-0.2107;-0.0172;0.0326;0.214
2.744000;-0.0929;0.0495;0.1663;0.197
2.751000;0.0408;0.1139;0.3077;0.331
2.762000;0.0963;0.1486;0.4311;0.466
2.771000;0.1470;0.1954;0.4852;0.543
2.781000;0.2070;0.2248;0.4876;0.575
2.803000;0.1989;0.2142;0.4870;0.568
2.805000;0.1417;0.1846;0.3875;0.452
2.816000;0.0608;0.1316;0.2262;0.269
2.821000;-0.0788;0.0666;0.1759;0.204
2.831000;-0.2064;-0.0010;0.1471;0.253
2.842000;-0.2537;0.0072;0.1726;0.307
2.850000;-0.2022;0.0851;0.1583;0.271
2.860000;-0.1023;0.1284;0.1402;0.216
2.871000;-0.0357;0.1460;0.1689;0.226
2.882000;-0.0274;0.1805;0.2025;0.273
2.900000;-0.0415;0.2389;0.1493;0.285
2.903000;-0.0340;0.2406;0.0190;0.244
2.913000;-0.0349;0.2239;-0.0721;0.238
2.921000;-0.0184;0.2053;-0.0280;0.208
2.931000;-0.0248;0.1289;0.0965;0.163
2.942000;-0.0196;0.0865;0.1422;0.168
2.950000;0.0106;0.1229;0.1857;0.223
2.961000;-0.0227;0.1033;0.3147;0.332
2.971000;-0.0151;0.0115;0.4223;0.423
2.983000;-0.0161;-0.0184;0.4472;0.448
3.015000;-0.0269;-0.0250;0.4570;0.458
3.018000;-0.0171;-0.0085;0.4406;0.441
3.019000;0.0390;-0.0113;0.4048;0.407
3.022000;0.1108;0.0063;0.4114;0.426
3.031000;0.2008;0.0629;0.2853;0.354
3.044000;0.2753;0.1194;0.1281;0.326
3.051000;0.3107;0.1787;-0.0240;0.359
3.061000;0.3007;0.1827;-0.1879;0.399
3.071000;0.2637;0.1934;-0.2774;0.429
3.083000;0.2298;0.2006;-0.3226;0.444
3.108000;0.2165;0.1834;-0.2820;0.400
3.110000;0.2044;0.1582;-0.1462;0.297
3.111000;0.2125;0.1311;0.0223;0.251
3.120000;0.2438;0.1068;0.1436;0.302
3.131000;0.2416;0.0629;0.2957;0.387
3.142000;0.2277;0.0967;0.3880;0.460
3.150000;0.2205;0.1543;0.2976;0.401
3.161000;0.1767;0.1707;0.0919;0.262
3.170000;0.1165;0.1586;-0.0536;0.204
3.180000;0.0691;0.1291;-0.0054;0.147
3.198000;0.0646;0.0930;0.0636;0.130
3.201000;0.0638;0.0983;0.1295;0.175
3.210000;0.0350;0.0886;0.2485;0.266
3.221000;-0.0122;0.0141;0.3168;0.317
3.230000;-0.1032;-0.0348;0.3562;0.373
3.243000;-0.1678;-0.0494;0.3132;0.359
3.251000;-0.1841;-0.0413;0.3018;0.356
3.261000;-0.1571;-0.0530;0.2043;0.263
3.270000;-0.1038;0.0092;0.1421;0.176
3.281000;-0.0464;0.0106;0.0670;0.082
3.291000;-0.0219;-0.0003;0.0185;0.029
3.301000;-0.0244;-0.0100;0.0142;0.030
3.310000;-0.0229;-0.0027;0.0266;0.035
3.320000;-0.0043;0.0158;0.0640;0.066
3.331000;0.0064;0.0443;0.1120;0.121
3.341000;0.0126;0.0813;0.1288;0.153
3.350000;0.0322;0.1126;0.0796;0.142
3.363000;0.0217;0.0996;0.0312;0.107
3.371000;-0.0272;0.0587;-0.0046;0.065
3.382000;-0.1083;-0.0152;0.0798;0.135
3.390000;-0.2015;-0.0451;0.1866;0.278
3.401000;-0.1816;-0.0196;0.2848;0.338
3.411000;-0.0859;0.0296;0.3484;0.360
3.420000;0.0190;0.1103;0.3573;0.374
3.431000;0.0481;0.1732;0.2649;0.320
3.441000;0.0432;0.2110;0.0915;0.234
3.450000;0.0109;0.1843;-0.0252;0.186
3.464000;-0.0561;0.1257;-0.0901;0.165
3.472000;-0.1170;0.0564;-0.1024;0.165
3.484000;-0.1742;0.0164;-0.0502;0.182
3.497000;-0.1986;0.0123;0.0135;0.199
3.501000;-0.1704;0.0693;0.1173;0.218
3.510000;-0.1024;0.1424;0.1731;0.246
3.520000;-0.0071;0.2091;0.1392;0.251
3.530000;0.0468;0.2422;0.1358;0.282
3.541000;0.0611;0.2069;0.1724;0.276
3.550000;0.0505;0.1405;0.1640;0.222
3.564000;-0.0094;0.0780;0.1428;0.163
3.572000;-0.0929;0.0253;0.1742;0.199
3.590000;-0.1314;-0.0115;0.2313;0.266
3.592000;-0.1532;-0.0283;0.4733;0.498
3.603000;-0.1393;0.0033;0.4274;0.450
3.617000;-0.1172;0.0215;0.3469;0.367
3.621000;-0.1017;0.0369;0.2845;0.304
3.631000;-0.0414;0.0505;0.1222;0.139
3.642000;0.0597;0.0986;-0.0103;0.116
3.651000;0.1615;0.1115;0.1811;0.267
3.666000;0.2624;0.0739;0.5270;0.593
3.672000;0.3077;0.0330;0.7543;0.815
3.689000;0.3035;0.0588;0.7818;0.841
3.692000;0.2973;0.0867;0.6754;0.743
3.704000;0.3297;0.1737;0.3985;0.546
3.718000;0.3322;0.2594;0.0193;0.422
3.722000;0.2892;0.3037;-0.3087;0.521
3.731000;0.2103;0.3082;-0.4577;0.591
3.741000;0.1853;0.2504;-0.4783;0.571
3.751000;0.1477;0.2251;-0.4523;0.526
3.767000;0.1104;0.2068;-0.3728;0.440
3.772000;0.0332;0.1325;-0.3131;0.342
3.797000;-0.0243;0.1305;-0.3474;0.372
3.799000;-0.0757;0.1443;-0.3704;0.405
3.802000;-0.0944;0.1064;-0.2901;0.323
3.811000;-0.0849;0.0434;-0.1305;0.162
3.821000;-0.0986;0.0147;0.0138;0.101
3.832000;-0.1294;-0.0014;0.0753;0.150
3.845000;-0.1306;0.0193;0.1657;0.212
3.851000;-0.1024;0.0232;0.2661;0.286
3.863000;-0.0793;-0.0005;0.2318;0.245
3.872000;-0.1184;-0.0398;0.1955;0.232
3.884000;-0.1970;-0.0841;0.1558;0.265
3.891000;-0.2658;-0.1341;0.1191;0.321
3.916000;-0.3281;-0.1645;0.1057;0.382
3.918000;-0.3900;-0.2109;0.0603;0.447
3.922000;-0.3979;-0.2014;0.0584;0.450
3.932000;-0.3487;-0.0690;0.0375;0.357
3.942000;-0.3096;0.0117;0.0854;0.321
3.951000;-0.3170;0.0851;0.1805;0.375
3.973000;-0.3170;0.0822;0.3071;0.449
3.977000;-0.3427;0.0285;0.3765;0.510
3.996000;-0.4039;-0.0530;0.3406;0.531
3.998000;-0.4307;-0.1070;0.2569;0.513
4.001000;-0.4174;-0.1324;0.1912;0.478
4.011000;-0.3633;-0.1152;0.1401;0.406
4.020000;-0.3048;-0.0557;0.1359;0.338
4.030000;-0.2822;0.0180;0.1343;0.313
4.040000;-0.2752;0.0319;0.1218;0.303
4.050000;-0.2696;0.0026;0.1173;0.294
4.065000;-0.2852;-0.0570;0.0837;0.303
4.070000;-0.3369;-0.0993;-0.0518;0.355
4.086000;-0.3801;-0.0975;-0.2016;0.441
4.091000;-0.4272;-0.0582;-0.3044;0.528
4.101000;-0.4141;0.0135;-0.3085;0.517
4.111000;-0.3736;0.0492;-0.3385;0.506
4.121000;-0.3069;0.1058;-0.3881;0.506
4.139000;-0.2702;0.1995;-0.1965;0.389
4.150000;-0.2738;0.1827;-0.1693;0.370
4.171000;-0.3213;0.1744;-0.1651;0.401
4.173000;-0.3900;0.2061;-0.2842;0.525
4.181000;-0.4400;0.2484;-0.5038;0.714
4.190000;-0.4814;0.2175;-0.5717;0.778
4.200000;-0.4541;0.1144;-0.4303;0.636
4.211000;-0.4020;-0.0113;-0.0640;0.407
4.220000;-0.3344;-0.1109;0.4848;0.599
4.230000;-0.2765;-0.1630;1.0254;1.074
4.240000;-0.1272;-0.0887;1.2851;1.294
4.251000;0.0175;-0.0383;1.0370;1.038
4.264000;0.2064;0.2728;0.6026;0.693
4.270000;0.2133;0.4618;0.0934;0.517
4.283000;0.1665;0.5566;-0.3609;0.684
4.290000;0.0820;0.5461;-0.6072;0.821
4.301000;0.0916;0.5455;-0.6503;0.854
4.312000;0.0562;0.5309;-0.7477;0.919
4.320000;-0.0117;0.4942;-0.6689;0.832
4.331000;-0.0726;0.4499;-0.5287;0.698
4.341000;-0.1014;0.4250;-0.3644;0.569
4.351000;-0.0431;0.4676;-0.1811;0.503
4.365000;0.0648;0.4655;0.0667;0.475
4.370000;0.2566;0.3874;0.3765;0.598
4.387000;0.4640;0.3154;0.5967;0.819
4.390000;0.5954;0.2650;0.8066;1.037
4.401000;0.6602;0.2955;0.9091;1.162
4.411000;0.6579;0.3459;0.7190;1.034
4.420000;0.5924;0.3633;0.3909;0.797
4.430000;0.5035;0.2969;0.1813;0.612
4.440000;0.4445;0.1213;0.1919;0.499
4.451000;0.3699;-0.1026;0.3761;0.537
4.465000;0.2423;-0.3232;0.6258;0.745
4.471000;0.1197;-0.4667;0.7704;0.909
4.485000;0.0523;-0.5502;0.7081;0.898
4.491000;0.1496;-0.5438;0.5359;0.778
4.501000;0.3548;-0.4308;0.2814;0.625
4.511000;0.5422;-0.2232;0.0477;0.588
4.520000;0.6916;-0.0438;-0.1694;0.713
4.530000;0.8048;0.0618;-0.3398;0.876
4.540000;0.8508;0.1196;-0.5693;1.031
4.551000;0.8710;0.1349;-0.9366;1.286
4.565000;0.8627;0.0609;-1.2505;1.520
4.571000;0.7884;-0.0170;-1.4464;1.647
4.594000;0.6195;-0.1008;-1.5459;1.668
4.597000;0.1973;-0.1221;-1.7247;1.740
4.601000;0.1527;0.0107;-1.8497;1.856
4.614000;0.2168;0.2165;-1.9930;2.016
4.621000;0.3069;0.4399;-1.9809;2.052
4.631000;0.4262;0.6036;-1.8929;2.032
4.641000;0.5156;0.7217;-1.5936;1.824
4.651000;0.5119;0.8236;-1.1002;1.467
4.667000;0.4302;0.8362;-0.6460;1.141
4.672000;0.3608;0.7724;-0.0036;0.853
4.693000;0.3853;0.8184;0.4525;1.011
4.696000;0.5022;1.0218;0.4884;1.239
4.701000;0.5945;1.3294;0.2676;1.481
4.714000;0.6101;1.6245;-0.0634;1.736
4.722000;0.6513;1.8575;-0.4412;2.017
4.731000;0.7747;2.0362;-0.6702;2.279
4.742000;0.9099;2.1228;-0.7137;2.417
4.752000;0.9451;2.0886;-0.6664;2.387
4.768000;0.8878;1.9443;-0.5710;2.212
4.795000;0.6181;1.5406;-0.2366;1.677
4.797000;0.5601;1.4272;-0.2461;1.553
4.801000;0.5955;1.3624;-0.3717;1.533
4.812000;0.6576;1.3272;-0.5523;1.581
4.821000;0.6605;1.2797;-0.6170;1.567
4.831000;0.6284;1.1963;-0.5031;1.442
4.840000;0.5738;1.1043;-0.3460;1.292
4.852000;0.4980;0.9742;-0.1564;1.105
4.870000;0.4292;0.8947;0.0315;0.993
4.872000;0.3877;0.9186;0.2180;1.021
4.901000;0.4440;1.0117;0.4920;1.209
4.904000;0.5563;1.0847;0.8557;1.489
4.905000;0.6581;1.0956;1.2558;1.792
4.912000;0.6968;1.1191;1.8693;2.287
4.921000;0.6710;1.1425;2.1978;2.566
4.931000;0.3384;1.3592;2.2762;2.673
4.942000;0.3383;1.4306;1.9699;2.458
4.952000;0.4840;1.3471;1.8142;2.311
4.968000;0.5460;1.1714;2.1170;2.480
4.972000;0.4313;1.0154;2.5998;2.824
4.993000;0.1247;0.8635;3.0297;3.153
4.996000;-0.2421;0.7259;3.0883;3.182
5.003000;-0.6459;0.5142;3.0935;3.202
5.012000;-0.8473;0.3540;2.8703;3.014
5.021000;-0.8028;0.1529;2.4724;2.604
5.030000;-0.5707;-0.0453;2.0639;2.142
5.040000;-0.2744;-0.1073;1.7368;1.762
5.051000;0.0391;-0.0425;1.5979;1.599
5.068000;0.2166;-0.1035;1.6701;1.687
5.072000;0.1465;-0.4209;1.9424;1.993
5.096000;-0.2657;-0.9044;2.2972;2.483
5.099000;-0.9218;-1.4349;2.5700;3.084
5.101000;-1.5685;-1.8670;2.5761;3.547
5.113000;-1.9528;-2.1919;2.0402;3.575
5.121000;-2.1183;-2.2873;1.2899;3.374
5.130000;-2.0810;-2.0790;0.4438;2.975
5.141000;-1.7866;-1.5929;-0.4118;2.429
5.150000;-1.3647;-0.9913;-1.1221;2.026
5.166000;-0.9795;-0.5467;-1.5580;1.920
5.170000;-0.6914;-0.2262;-1.8111;1.952
5.192000;-0.4567;-0.1229;-2.0222;2.077
5.195000;-0.2081;-0.1002;-2.0380;2.051
5.201000;-0.1502;-0.3272;-1.7592;1.796
5.212000;-0.0760;-0.6664;-1.4239;1.574
5.220000;-0.0892;-0.9986;-1.0810;1.474
5.231000;-0.2073;-1.2528;-0.6146;1.411
5.241000;-0.3607;-1.3260;-0.4137;1.435
5.252000;-0.6131;-1.3168;-0.7503;1.635
5.268000;-0.9888;-1.3216;-0.9905;1.925
5.272000;-1.0290;-1.1714;-1.0953;1.905
5.300000;-1.1968;-1.1170;-1.2255;2.045
5.303000;-1.5259;-1.1847;-1.1547;2.251
5.305000;-1.3059;-0.7194;-0.8452;1.714
5.314000;-0.7094;-0.4426;-0.4773;0.963
5.321000;-0.2496;-0.1310;-0.5470;0.615
5.331000;-0.2713;0.2015;-0.5732;0.665
5.341000;-0.2913;0.3801;-0.7582;0.897
5.352000;-0.2182;0.3487;-1.1973;1.266
5.371000;-0.2660;0.3085;-1.5131;1.567
5.374000;-0.4458;0.4045;-1.5816;1.692
5.406000;-0.6341;0.4852;-1.3353;1.556
5.408000;-0.7964;0.4087;-0.8512;1.235
5.409000;-0.8185;0.2819;-0.6179;1.064
5.411000;-0.8137;0.2273;-0.6070;1.040
5.421000;-0.8849;0.2073;-0.8206;1.225
5.430000;-1.0756;0.1964;-0.9171;1.427
5.441000;-1.1378;0.1981;-0.5439;1.277
5.451000;-1.0067;0.3199;-0.3242;1.105
5.461000;-0.7515;0.4973;-0.1999;0.923
5.476000;-0.6292;0.6524;-0.1202;0.914
5.489000;-0.6048;0.7430;-0.0168;0.958
5.492000;-0.5585;0.8008;0.0993;0.981
5.500000;-0.4642;0.8909;0.1386;1.014
5.513000;-0.3560;0.9641;0.1324;1.036
5.521000;-0.2410;1.0972;0.1694;1.136
5.531000;-0.0433;1.2680;0.2087;1.286
5.541000;0.1349;1.3751;0.2168;1.399
5.550000;0.2475;1.3564;0.0980;1.382
5.561000;0.1385;1.1437;-0.0223;1.152
5.571000;-0.0938;0.8547;0.1623;0.875
5.589000;-0.2844;0.7069;0.6770;1.019
5.592000;-0.0421;0.7781;1.4753;1.668
5.601000;0.2359;0.9850;1.6232;1.913
5.611000;0.4772;1.1135;1.7317;2.113
5.621000;0.6585;1.1431;1.9466;2.352
5.631000;0.6671;1.0472;1.8819;2.255
5.640000;0.4187;0.9263;1.6775;1.961
5.651000;0.1877;0.8271;1.5747;1.789
5.661000;0.2104;0.6655;1.6530;1.794
5.671000;0.5330;0.4006;1.8724;1.988
5.690000;0.9423;0.0192;2.0858;2.289
5.692000;1.1994;-0.5027;2.3046;2.646
5.702000;1.2075;-1.1467;2.6623;3.140
5.711000;0.9467;-1.8173;3.2489;3.841
5.721000;0.5386;-2.3280;3.7352;4.434
5.731000;0.2315;-2.5954;3.8989;4.690
5.741000;0.2455;-2.5438;3.7035;4.500
5.751000;0.5652;-2.2764;3.0008;3.809
5.761000;0.9792;-1.7938;2.0091;2.866
5.771000;1.2935;-1.2538;0.9757;2.049
5.787000;1.4328;-0.8871;-0.0282;1.685
5.791000;1.3775;-0.6792;-0.7930;1.728
5.801000;1.1977;-0.6331;-1.3740;1.930
5.810000;0.9208;-0.6940;-1.7860;2.126
5.820000;0.6652;-0.7166;-1.9099;2.146
5.830000;0.4786;-0.7405;-1.7520;1.961
5.840000;0.4046;-0.7224;-1.3883;1.616
5.853000;0.4265;-0.6291;-1.1090;1.344
5.861000;0.4604;-0.5218;-0.7932;1.055
5.871000;0.4255;-0.4316;-0.5915;0.847
5.893000;0.3459;-0.3324;-0.4918;0.687
5.895000;0.2190;-0.2728;-0.5853;0.682
5.902000;0.0934;-0.2015;-0.8250;0.854
5.911000;-0.0033;-0.1018;-0.9534;0.959
5.921000;0.0377;0.0132;-0.9369;0.938
5.930000;0.1370;0.0495;-0.8612;0.873
5.941000;0.2244;0.1205;-0.7673;0.808
5.951000;0.3492;0.2581;-0.6792;0.806
5.961000;0.4865;0.3845;-0.6390;0.890
5.971000;0.6087;0.3962;-0.6898;1.002
5.988000;0.6851;0.3232;-0.8470;1.136
5.991000;0.6725;0.2279;-1.1527;1.354
6.001000;0.4929;0.1564;-1.5195;1.605
6.010000;0.2356;0.0473;-1.8460;1.862
6.021000;-0.0439;0.0404;-2.0545;2.055
6.032000;-0.2898;0.0329;-2.1226;2.143
6.041000;-0.3847;0.0956;-2.0466;2.085
6.051000;-0.2911;0.1784;-1.7730;1.806
6.061000;-0.1520;0.2994;-1.4764;1.514
6.071000;-0.0931;0.4652;-1.1917;1.283
6.104000;-0.0871;0.6319;-0.8366;1.052
6.106000;0.0498;0.7754;-0.4892;0.918
6.107000;0.3153;0.9260;-0.3702;1.046
6.113000;0.4705;1.0600;-0.3158;1.202
6.122000;0.4967;1.0357;-0.0466;1.150
6.131000;0.4304;1.0682;0.2485;1.178
6.140000;0.2368;1.1069;0.2172;1.153
6.151000;0.1484;1.0750;0.4251;1.165
6.161000;0.2726;0.9919;0.5036;1.145
6.171000;0.3550;0.7919;0.6318;1.073
6.187000;0.3611;0.5765;0.8696;1.104
6.191000;0.2277;0.3377;1.1696;1.238
6.201000;-0.1764;0.0546;1.5617;1.573
6.210000;-0.6667;-0.0929;1.8249;1.945
6.220000;-0.9471;-0.1630;1.6357;1.897
6.232000;-0.8663;-0.0663;1.2993;1.563
6.240000;-0.5321;0.2737;1.2010;1.342
6.250000;0.0803;1.1872;0.9127;1.500
6.261000;0.3126;1.3406;0.8990;1.644
6.272000;0.5313;1.2677;0.9472;1.669
6.297000;0.6015;0.9925;1.1193;1.612
6.300000;0.4568;0.4165;1.3264;1.463
6.301000;0.1893;-0.2960;1.6042;1.642
6.311000;-0.0972;-0.9541;2.0741;2.285
6.321000;-0.3784;-1.4605;2.9526;3.316
6.333000;-0.6427;-1.8307;3.7788;4.248
6.341000;-0.8836;-1.9009;3.9411;4.464
6.351000;-1.1369;-1.6576;3.2201;3.796
6.361000;-1.3949;-1.3642;1.9464;2.756
6.373000;-1.5483;-1.1109;0.5625;1.987
6.395000;-1.5226;-0.9040;-0.4797;1.835
6.397000;-1.3650;-0.6688;-1.2357;1.959
6.401000;-1.1640;-0.5345;-1.6208;2.066
6.410000;-0.9071;-0.5777;-1.5559;1.891
6.421000;-0.5904;-0.7329;-1.0795;1.432
6.431000;-0.3237;-0.9305;-0.3281;1.038
6.440000;-0.1835;-1.1090;0.4074;1.196
6.450000;-0.0883;-1.1765;0.7709;1.409
6.461000;-0.0599;-1.1998;0.6589;1.370
6.470000;-0.0485;-1.1458;0.2818;1.181
6.486000;-0.0832;-1.0945;-0.1063;1.103
6.491000;-0.1604;-1.0762;-0.3916;1.156
6.500000;-0.1988;-1.0137;-0.5771;1.183
6.510000;-0.1399;-0.9262;-0.7733;1.215
6.521000;-0.0758;-0.8188;-0.9772;1.277
6.531000;-0.0629;-0.7164;-1.1493;1.356
6.540000;-0.0387;-0.5615;-1.2764;1.395
6.551000;0.0392;-0.3891;-1.3531;1.408
6.560000;0.1928;-0.2188;-1.4438;1.473
6.572000;0.3606;-0.0532;-1.4889;1.533
6.591000;0.5118;0.1833;-1.5716;1.663
6.593000;0.6933;0.5299;-1.6192;1.839
6.603000;0.6359;0.5324;-1.5491;1.757
6.610000;0.5003;0.4491;-1.4479;1.596
6.621000;0.3605;0.3081;-1.3804;1.460
6.631000;0.1735;0.1503;-1.2766;1.297
6.640000;-0.1099;0.1096;-1.0413;1.053
6.651000;-0.4129;0.0947;-0.7477;0.859
6.661000;-0.6541;0.1670;-0.4160;0.793
6.671000;-0.8189;0.2731;-0.2565;0.900
6.701000;-0.9707;0.3920;-0.2805;1.084
6.703000;-1.0939;0.4813;-0.3427;1.243
6.704000;-1.2023;0.5123;-0.3668;1.357
6.710000;-1.3015;0.5632;-0.4398;1.485
6.721000;-1.3682;0.6313;-0.4467;1.572
6.732000;-1.3864;0.6168;-0.3106;1.549
6.741000;-1.4398;0.5317;0.1291;1.540
6.751000;-1.5233;0.4177;0.9763;1.857
6.761000;-1.4550;0.4389;1.8167;2.369
6.772000;-1.2207;0.6124;2.3881;2.751
6.802000;-0.8685;0.8577;2.7220;2.983
6.806000;-0.5655;1.1602;2.8957;3.170
6.807000;-0.5464;1.4359;3.0652;3.429
6.811000;-0.4140;1.9294;2.5548;3.228
6.821000;0.1167;2.4095;1.5538;2.869
6.834000;0.8515;2.6506;0.8726;2.918
6.841000;1.2842;2.5385;0.6287;2.913
6.850000;1.0380;2.1728;0.8314;2.547
6.860000;0.4748;1.6369;1.2459;2.111
6.872000;0.3543;1.0178;1.6643;1.983
6.892000;0.6979;0.4450;2.0901;2.248
6.894000;0.9757;-0.1609;2.3430;2.543
6.902000;0.9706;-0.7934;2.4534;2.755
6.910000;0.8356;-1.3759;2.6044;3.062
6.921000;0.5467;-1.9967;1.8801;2.796
6.932000;0.5845;-1.8358;1.1146;2.226
6.941000;0.7726;-1.4378;0.4796;1.701
6.950000;0.9671;-0.8946;-0.0752;1.320
6.961000;1.0991;-0.3879;-0.5565;1.292
6.972000;1.2002;-0.1444;-0.7416;1.418
7.008000;1.2034;-0.1476;-0.7034;1.402
7.012000;0.9831;-0.2657;-0.5815;1.173
7.013000;0.6575;-0.4546;-0.4902;0.938
7.014000;0.3929;-0.6755;-0.4584;0.906
7.022000;0.1518;-0.8906;-0.3100;0.955
7.032000;-0.0947;-1.0051;-0.2072;1.031
7.041000;-0.3141;-1.0980;0.0793;1.145
7.050000;-0.3329;-1.0689;0.6133;1.277
7.060000;-0.1108;-0.9908;1.1894;1.552
7.072000;0.1014;-0.9135;1.6600;1.897
7.098000;0.2030;-0.7693;1.9695;2.124
7.100000;0.3490;-0.5427;1.9314;2.036
7.101000;0.6036;-0.2293;1.5927;1.719
7.111000;0.9480;0.1524;0.6951;1.185
7.120000;1.2395;0.5419;-0.4321;1.420
7.132000;1.3812;0.7963;-1.4419;2.150
7.141000;1.3399;0.7769;-2.1490;2.649
7.151000;1.1047;0.4886;-2.5760;2.845
7.161000;0.6421;0.0548;-2.8121;2.885
7.171000;0.0920;-0.2729;-2.9213;2.935
7.208000;-0.3926;-0.4769;-2.8536;2.920
7.210000;-0.6601;-0.5191;-2.6137;2.745
7.211000;-0.7296;-0.5073;-2.3541;2.516
7.213000;-0.7375;-0.4754;-2.2328;2.399
7.221000;-0.7213;-0.3888;-2.2032;2.351
7.232000;-0.6082;-0.2892;-2.2622;2.360
7.241000;-0.4046;-0.1491;-2.0505;2.095
7.250000;-0.0226;0.3390;-1.8950;1.925
7.260000;0.1887;0.6420;-1.6347;1.766
7.271000;0.4081;0.9535;-1.3027;1.665
7.293000;0.6116;1.1794;-0.9720;1.646
7.294000;0.7627;1.4164;-0.7839;1.789
7.304000;0.7031;1.5015;-0.6434;1.778
7.311000;0.6065;1.4296;-0.4105;1.606
7.320000;0.6072;1.2954;0.0236;1.431
7.332000;0.6320;1.1220;0.5319;1.393
7.341000;0.5999;0.9799;0.8894;1.453
7.352000;0.5658;0.9706;1.1260;1.591
7.361000;0.7014;1.0310;1.2195;1.744
7.373000;1.1579;1.0931;1.1830;1.984
7.407000;1.7814;0.9413;1.3419;2.421
7.409000;2.0751;0.6090;1.6803;2.739
7.410000;1.6847;0.3749;2.3600;2.924
7.412000;0.8531;0.0392;3.0325;3.150
7.420000;0.1578;-0.4084;3.0668;3.098
7.432000;-0.2277;-0.6490;2.7094;2.795
7.440000;-0.4926;-0.4919;2.1417;2.252
7.451000;-0.7315;-0.0639;1.4808;1.653
7.461000;-0.8881;0.3514;0.7785;1.232
7.473000;-0.6937;0.5711;0.0034;0.899
7.500000;-0.1953;0.5788;-0.4529;0.760
7.501000;0.3225;0.3573;-0.7301;0.875
7.502000;0.6321;0.0279;-0.5953;0.869
7.510000;0.3939;-0.3912;-0.1411;0.573
7.521000;0.1341;-0.6361;0.8037;1.034
7.534000;-0.1537;-0.8430;1.9162;2.099
7.541000;-0.1802;-0.9950;2.4799;2.678
7.551000;-0.1997;-0.9446;2.7095;2.876
7.560000;-0.3297;-0.7767;2.3840;2.529
7.570000;-0.4743;-0.6139;1.6198;1.796
7.586000;-0.7665;-0.6463;0.1540;1.014
7.590000;-0.9495;-0.6625;-0.1185;1.164
7.609000;-1.0736;-0.7147;-0.2477;1.313
7.612000;-1.0787;-0.8350;-0.0112;1.364
7.621000;-0.9597;-0.9291;0.3573;1.383
7.632000;-0.8146;-1.1155;0.8292;1.611
7.640000;-0.7676;-1.1971;1.2845;1.916
7.651000;-0.7777;-1.2002;1.5138;2.082
7.660000;-0.7448;-1.2103;1.3903;1.988
7.671000;-0.6685;-1.1548;0.9757;1.653
7.681000;-0.5676;-0.9536;0.4040;1.181
7.694000;-0.4648;-0.6955;-0.0747;0.840
7.704000;-0.3834;-0.5074;-0.4357;0.771
7.710000;-0.3604;-0.5248;-0.5185;0.821
7.720000;-0.4074;-0.6592;-0.2599;0.817
7.731000;-0.4765;-0.7951;-0.0092;0.927
7.740000;-0.5102;-0.8181;-0.0135;0.964
7.752000;-0.5269;-0.6801;-0.2590;0.898
7.760000;-0.5138;-0.4378;-0.7322;0.996
7.770000;-0.4051;-0.2433;-1.3443;1.425
7.782000;-0.1608;0.0057;-1.7823;1.790
7.793000;0.1813;0.1718;-2.0721;2.087
7.803000;0.5037;0.2596;-2.0673;2.144
7.810000;0.6531;0.3178;-1.8695;2.006
7.821000;0.5414;0.3131;-1.5691;1.689
7.832000;0.2556;0.2248;-1.2756;1.320
7.841000;-0.0910;0.1232;-0.9603;0.972
7.850000;-0.3596;0.0991;-0.7610;0.848
7.860000;-0.5757;0.1815;-0.6272;0.871
7.871000;-0.7283;0.2503;-0.5116;0.925
7.898000;-0.7357;0.4210;-0.6976;1.098
7.901000;-0.6780;0.6503;-0.9188;1.314
7.902000;-0.4597;1.0892;-0.9677;1.528
7.910000;-0.4453;1.2430;-0.7602;1.524
7.920000;-0.4775;1.3517;-0.3742;1.482
7.930000;-0.4420;1.3563;-0.0510;1.427
7.941000;-0.3294;1.2468;0.0443;1.290
7.952000;-0.3063;1.1172;0.2017;1.176
7.960000;-0.4320;0.9829;0.6705;1.266
7.972000;-0.4661;0.8915;1.2287;1.588
8.000000;-0.3335;0.8387;1.4805;1.734
8.001000;-0.2381;0.9430;1.7525;2.004
8.002000;-0.4053;1.1007;2.2398;2.528
8.010000;-0.5552;1.2152;2.3788;2.728
8.021000;-0.4381;1.0784;1.8494;2.185
8.031000;-0.2123;0.7672;1.1536;1.402
8.041000;-0.1387;0.3194;0.9382;1.001
8.051000;-0.2549;-0.0344;1.2351;1.262
8.061000;-0.3833;-0.2831;1.4611;1.537
8.073000;-0.3598;-0.4067;1.7095;1.794
8.082000;-0.1446;-0.3949;2.0194;2.063
8.115000;0.2353;-0.2916;2.3606;2.390
8.118000;0.7238;-0.1445;2.8308;2.925
8.120000;1.1450;-0.0494;3.2774;3.472
8.122000;1.3841;-0.1479;3.4702;3.739
8.132000;1.4717;-0.3513;3.4750;3.790
8.140000;1.4720;-0.5278;3.5840;3.910
8.151000;1.4704;-0.7566;3.6480;4.005
8.161000;1.4246;-1.0290;3.3399;3.774
8.170000;1.2195;-1.2555;2.4526;3.013
8.181000;0.8153;-1.3541;1.2265;2.001
8.199000;0.3998;-1.3750;0.1062;1.436
8.201000;0.0848;-1.3163;-0.7420;1.513
8.211000;-0.1155;-1.2197;-1.3587;1.830
8.221000;-0.2155;-1.1221;-1.7058;2.053
8.232000;-0.2341;-0.9739;-1.6059;1.893
8.240000;-0.1237;-0.8284;-0.5952;1.028
8.251000;0.2896;-0.5403;-0.3514;0.707
8.260000;0.3517;-0.3221;-0.3984;0.621
8.271000;0.3476;-0.1353;-0.5745;0.685
8.281000;0.3347;-0.0271;-0.7543;0.826
8.307000;0.3870;0.0273;-1.0263;1.097
8.309000;0.4504;0.0381;-1.4231;1.493
8.311000;0.4430;0.0572;-1.7676;1.823
8.320000;0.3734;0.1050;-1.8422;1.883
8.330000;0.2831;0.1162;-1.6242;1.653
8.340000;0.2839;0.0905;-1.3015;1.335
8.351000;0.3223;0.0486;-1.2179;1.261
8.360000;0.2986;0.0883;-1.3937;1.428
8.370000;0.2378;0.1852;-1.6268;1.654
8.381000;0.2697;0.3137;-2.0153;2.057
8.392000;0.4098;0.4259;-2.4082;2.480
8.418000;0.5637;0.5231;-2.7045;2.812
8.420000;0.6433;0.5928;-2.7786;2.913
8.422000;0.6387;0.5987;-2.8201;2.953
8.430000;0.5689;0.5780;-2.8424;2.956
8.441000;0.4416;0.5239;-2.6033;2.692
8.451000;0.3536;0.3781;-2.1688;2.230
8.460000;0.3093;0.2309;-1.7422;1.784
8.471000;0.2958;0.1923;-1.4404;1.483
8.480000;0.3373;0.3086;-1.1735;1.259
8.492000;0.4879;0.5259;-0.8161;1.087
8.513000;0.6934;0.7557;-0.5064;1.144
8.515000;0.9093;1.0576;-0.4487;1.465
8.524000;0.9981;1.2908;-0.4697;1.698
8.530000;0.9872;1.4108;-0.4373;1.777
8.540000;0.8128;1.3986;-0.2497;1.637
8.551000;0.6418;1.3232;0.1854;1.482
8.560000;0.5352;1.2394;0.7158;1.528
8.570000;0.5361;1.0440;1.2610;1.723
8.580000;0.4317;0.4813;2.6518;2.729
8.592000;-0.0192;0.3759;3.4233;3.444
8.618000;-0.4888;0.3768;3.5138;3.568
8.620000;-0.5954;0.3667;2.8640;2.948
8.622000;-0.4187;0.3523;2.4289;2.490
8.631000;-0.3932;0.4958;2.4152;2.497
8.641000;-0.6656;0.7709;2.3029;2.518
8.651000;-0.8571;0.9309;1.9316;2.309
8.660000;-0.7557;0.8403;1.5163;1.891
8.670000;-0.5725;0.5473;1.2471;1.477
8.681000;-0.5739;0.0690;1.0724;1.218
8.692000;-0.7783;-0.4829;1.3988;1.672
8.718000;-0.7493;-0.8123;2.1754;2.440
8.720000;-0.4201;-0.8708;2.9793;3.132
8.721000;0.0205;-0.7590;3.5277;3.608
8.730000;0.3091;-0.6441;3.3894;3.464
8.740000;0.3193;-0.5851;2.4962;2.584
8.751000;0.0425;-0.6671;1.1694;1.347
8.761000;-0.3334;-0.8662;0.0241;0.928
8.771000;-0.6108;-1.0528;-0.7865;1.449
8.782000;-0.8249;-1.2330;-1.1964;1.906
8.792000;-0.9982;-1.3131;-1.2645;2.078
8.827000;-0.9539;-1.3153;-1.1904;2.014
8.829000;-0.8090;-1.3489;-0.8301;1.779
8.829000;-0.6243;-1.3233;-0.3103;1.496
8.831000;-0.5097;-1.3102;0.0524;1.407
8.841000;-0.5389;-1.2634;0.1172;1.379
8.852000;-0.6431;-1.2182;-0.0409;1.378
8.860000;-0.6572;-1.0925;-0.3393;1.319
8.870000;-0.5892;-1.0230;-0.7404;1.394
8.880000;-0.4636;-0.9557;-1.1952;1.599
8.892000;-0.2707;-0.7731;-1.6297;1.824
8.919000;-0.2755;-0.7448;-1.1745;1.418
8.921000;-0.4836;-1.0688;-0.6341;1.334
8.922000;-0.6117;-1.2678;-0.3913;1.461
8.931000;-0.8577;-1.3508;-0.4574;1.664
8.941000;-0.6245;-0.7017;-0.4749;1.053
8.952000;-0.1566;-0.3317;-0.3054;0.477
8.961000;0.0775;-0.1760;-0.5958;0.626
8.971000;0.0350;-0.0189;-0.7780;0.779
8.981000;0.0562;0.0819;-0.9107;0.916
8.991000;0.0702;0.1303;-1.1908;1.200
9.033000;-0.0332;0.1782;-1.4521;1.463
9.035000;-0.1501;0.2201;-1.6043;1.626
9.037000;-0.3509;0.2417;-1.6697;1.723
9.038000;-0.5682;0.2396;-1.6435;1.755
9.041000;-0.7272;0.2281;-1.5473;1.725
9.052000;-0.7376;0.2742;-1.4803;1.676
9.061000;-0.7328;0.3577;-1.2007;1.451
9.070000;-0.7659;0.4550;-0.7668;1.175
9.081000;-0.7470;0.6029;-0.4886;1.077
9.092000;-0.6883;0.7847;-0.5901;1.199
9.120000;-0.7101;0.9613;-0.6156;1.344
9.121000;-0.8952;0.8609;-0.4617;1.325
9.123000;-1.2938;0.6807;-0.2842;1.489
9.130000;-1.1382;1.3153;0.0752;1.741
9.141000;-0.6724;1.6174;-0.0114;1.752
9.152000;-0.1954;1.6501;-0.4005;1.709
9.160000;-0.1838;1.6993;-0.2841;1.733
9.170000;-0.3627;1.6670;0.3567;1.743
9.180000;-0.4891;1.4841;1.0657;1.891
9.191000;-0.6357;1.3632;1.4857;2.114
9.220000;-0.9137;1.3997;1.6763;2.367
9.222000;-1.1243;1.3008;2.6594;3.167
9.223000;-0.8189;1.2316;2.3145;2.747
9.230000;-0.1640;1.1865;2.5694;2.835
9.241000;0.4927;1.1041;2.6142;2.880
9.252000;0.6746;0.9508;2.5324;2.788
9.260000;0.7846;0.7061;2.1520;2.397
9.270000;0.8048;0.3596;1.9475;2.138
9.280000;0.8121;-0.1054;2.0018;2.163
9.292000;0.7449;-0.6986;2.4107;2.618
9.318000;0.6211;-1.3520;3.3044;3.624
9.320000;0.5596;-1.8770;4.2611;4.690
9.323000;0.5827;-2.2056;4.8322;5.344
9.330000;0.7378;-2.3852;5.0529;5.636
9.340000;0.9122;-2.3948;4.7546;5.401
9.352000;1.0340;-2.2528;3.7668;4.509
9.361000;1.0699;-2.0650;2.2262;3.219
9.371000;0.9984;-1.8913;0.6648;2.240
9.380000;0.7910;-1.8215;-0.4680;2.040
9.392000;0.6076;-1.7383;-1.1473;2.170
9.414000;0.3793;-1.6293;-1.5370;2.272
9.416000;0.1927;-1.4314;-1.5593;2.125
9.423000;0.1409;-1.1158;-1.4502;1.835
9.430000;0.2272;-0.7677;-1.3541;1.573
9.440000;0.3859;-0.4458;-1.2794;1.409
9.452000;0.5293;-0.1497;-1.2084;1.328
9.460000;0.6433;0.1171;-1.1311;1.306
9.470000;0.7302;0.3224;-1.0608;1.328
9.480000;0.7803;0.4142;-1.0075;1.340
9.491000;0.7516;0.3730;-0.9800;1.290
9.519000;0.6476;0.2306;-0.8589;1.100
9.521000;0.4751;0.1033;-0.7748;0.915
9.522000;0.3065;0.0130;-0.6674;0.735
9.530000;0.1890;0.0247;-0.7249;0.750
9.541000;0.1380;0.1076;-0.8540;0.872
9.553000;0.1470;0.2492;-1.0223;1.062
9.560000;0.2167;0.4072;-1.2314;1.315
9.570000;0.3314;0.5361;-1.6481;1.765
9.580000;0.3619;0.5571;-1.8340;1.951
9.601000;0.2836;0.5054;-2.0108;2.093
9.611000;-0.1052;0.4865;-2.0569;2.116
9.622000;-0.1791;0.4918;-1.9944;2.062
9.630000;-0.2003;0.4058;-1.6544;1.715
9.641000;-0.2163;0.3495;-1.2739;1.339
9.653000;-0.1694;0.3948;-1.0638;1.147
9.661000;-0.0715;0.4912;-1.1063;1.213
9.670000;0.0069;0.6155;-1.2312;1.377
9.681000;0.0729;0.7604;-1.4465;1.636
9.691000;0.1435;0.9680;-1.5971;1.873
9.731000;0.2590;1.2043;-1.5713;1.997
9.733000;0.4141;1.3394;-1.4433;2.012
9.735000;0.4798;1.2926;-1.1293;1.782
9.736000;0.3868;1.1998;-0.6880;1.436
9.740000;0.2171;1.0602;-0.2077;1.102
9.753000;0.0838;1.0002;0.2295;1.030
9.761000;0.0570;0.9094;0.5408;1.060
9.770000;0.1470;0.8376;0.7090;1.107
9.781000;0.2997;0.8191;0.8769;1.237
9.792000;0.4437;0.7204;0.9777;1.293
9.825000;0.4454;0.5307;1.0698;1.275
9.827000;0.1149;0.1975;1.4145;1.433
9.827000;-0.6260;-0.0439;2.1182;2.209
9.831000;-1.4580;0.0043;2.3984;2.807
9.841000;-1.9411;0.1678;1.9622;2.765
9.854000;-1.8427;0.3527;1.6923;2.527
9.861000;-1.3689;0.5071;1.6246;2.184
9.870000;-0.8905;0.8242;1.4023;1.854
9.881000;-0.4178;1.1510;0.7222;1.422
9.892000;0.1950;1.3074;-0.0228;1.322
9.919000;0.7711;1.2500;0.5220;1.559
9.922000;0.9651;0.3261;1.4613;1.781
9.923000;0.7653;-0.1877;2.3769;2.504
9.931000;0.6478;-0.4892;3.2122;3.313
9.940000;0.5684;-0.7398;3.5422;3.663
9.952000;0.3794;-0.9466;3.2313;3.388
9.961000;-0.0274;-1.0562;2.3136;2.543
9.973000;-0.5084;-1.1720;1.2306;1.774
9.980000;-0.9166;-1.3383;0.3027;1.650
10.005000;-1.1671;-1.3986;-0.3305;1.851
10.007000;-1.2805;-1.4367;-0.6383;2.028
10.011000;-1.2468;-1.4860;-0.6875;2.058
10.021000;-1.0291;-1.5424;-0.4914;1.918
10.030000;-0.7204;-1.6173;-0.0953;1.773
10.041000;-0.4373;-1.6371;0.2589;1.714
10.051000;-0.3335;-1.6013;0.6290;1.752
10.060000;-0.3261;-1.6027;1.0944;1.968
10.074000;-0.3069;-1.6283;1.3490;2.137
10.080000;-0.2926;-1.6043;1.3203;2.098
10.108000;-0.3235;-1.5347;1.0097;1.865
10.109000;-0.3988;-1.4636;0.2883;1.544
10.111000;-0.5037;-1.3503;-0.5363;1.538
10.121000;-0.4909;-1.1509;-1.2591;1.775
10.130000;-0.4273;-0.8916;-1.9297;2.168
10.142000;-0.3292;-0.7266;-2.2262;2.365
10.151000;-0.2437;-0.7082;-2.2990;2.418
10.163000;-0.2182;-0.7181;-2.2014;2.326
10.178000;-0.1956;-0.6270;-2.1786;2.275
10.183000;-0.2045;-0.5362;-2.1083;2.185
10.213000;-0.2329;-0.4546;-2.1656;2.225
10.215000;-0.3063;-0.4149;-2.2251;2.284
10.217000;-0.3735;-0.3268;-2.3385;2.391
10.221000;-0.4263;-0.1959;-2.3188;2.366
10.230000;-0.3756;-0.0419;-2.1537;2.187
10.241000;-0.2524;0.2933;-1.8506;1.891
10.251000;-0.2197;0.4623;-1.4685;1.555
10.260000;-0.1959;0.6148;-1.1637;1.331
10.273000;-0.2308;0.7596;-0.8175;1.140
10.281000;-0.3225;0.8104;-0.4152;0.966
10.307000;-0.3950;0.8629;-0.2950;0.994
10.309000;-0.5408;0.9100;-0.2793;1.095
10.311000;-0.7196;0.9993;-0.1452;1.240
10.321000;-0.7590;1.1400;0.1125;1.374
10.330000;-0.6660;1.2307;0.2640;1.424
10.341000;-0.5610;1.3487;0.3782;1.509
10.351000;-0.5616;1.4263;0.6649;1.671
10.360000;-0.5556;1.5479;1.0155;1.933
10.374000;-0.4164;1.6323;1.0918;2.007
10.380000;-0.1966;1.6768;1.2021;2.073
10.407000;-0.0243;1.6935;1.3691;2.178
10.409000;0.1115;1.6465;1.6323;2.321
10.411000;0.2080;1.5805;1.6123;2.267
10.421000;0.1181;1.5940;1.8986;2.482
10.430000;-0.1320;1.5936;1.9148;2.495
10.441000;-0.5327;1.5470;1.7711;2.411
10.451000;-0.7774;1.4145;1.6699;2.322
10.461000;-0.5900;1.2134;1.5166;2.030
10.474000;-0.2166;1.0638;1.5879;1.924
10.481000;0.1489;1.0264;1.7854;2.065
10.509000;0.5103;0.9527;1.9482;2.228
10.511000;0.9605;0.7462;2.2801;2.584
10.512000;1.3081;0.3711;2.9177;3.219
10.521000;1.4590;-0.1316;3.4927;3.788
10.530000;1.3332;-0.7072;3.8240;4.111
10.541000;1.1448;-1.1331;3.9382;4.255
10.550000;1.0890;-1.4416;3.8614;4.263
10.561000;1.3717;-1.5925;3.1011;3.746
10.577000;1.5094;-1.4449;2.3775;3.165
10.582000;1.5313;-1.3322;1.4261;2.481
10.621000;1.4172;-1.3007;0.4940;1.986
10.623000;1.1690;-1.3205;-0.3229;1.793
10.624000;0.8918;-1.3353;-1.1447;1.972
10.625000;0.5796;-1.2867;-1.5445;2.092
10.630000;0.3018;-1.1576;-1.5593;1.965
10.641000;0.1389;-0.9880;-1.4970;1.799
10.651000;0.0551;-0.7552;-1.4415;1.628
10.661000;0.0215;-0.4849;-1.3952;1.477
10.674000;-0.0298;-0.2712;-1.4536;1.479
10.681000;-0.0691;-0.1069;-1.4388;1.444
10.709000;-0.0846;-0.0175;-1.3684;1.371
10.710000;-0.1074;0.0409;-1.2673;1.273
10.712000;-0.1070;0.1804;-1.1617;1.180
10.721000;-0.1008;0.2388;-0.9647;0.999
10.730000;-0.0001;0.3373;-0.6919;0.770
10.740000;0.1956;0.4090;-0.2578;0.522
10.750000;0.3736;0.4480;0.0794;0.589
10.760000;0.5165;0.4681;0.1579;0.715
10.775000;0.5493;0.4520;-0.0064;0.711
10.780000;0.4120;0.4008;-0.4299;0.718
10.809000;0.2400;0.3548;-1.0452;1.130
10.811000;0.0462;0.2859;-1.6231;1.649
10.813000;-0.0816;0.2206;-2.0758;2.089
10.821000;-0.2593;0.1824;-2.3408;2.362
10.830000;-0.3179;0.2297;-2.4004;2.432
10.841000;-0.2540;0.2905;-2.3463;2.378
10.850000;-0.0555;0.3749;-2.0935;2.128
10.861000;0.1587;0.4115;-1.7055;1.762
10.874000;0.2313;0.4596;-0.8301;0.977
10.880000;0.2304;0.4441;-0.8230;0.963
10.912000;0.3042;0.5130;-0.5384;0.803
10.915000;0.5367;0.8672;-0.7386;1.259
10.916000;0.5574;1.1219;-0.7414;1.456
10.922000;0.5894;1.2405;-0.6688;1.528
10.931000;0.6306;1.3028;-0.4480;1.515
10.941000;0.5884;1.2840;-0.2641;1.437
10.950000;0.3769;1.1221;-0.0013;1.184
10.961000;0.1275;0.9280;0.4227;1.028
10.975000;0.0088;0.7351;0.9866;1.230
10.980000;-0.0118;0.5963;1.5184;1.631
11.012000;-0.0926;0.5497;1.8889;1.969
11.013000;-0.1834;0.5455;1.9134;1.998
11.014000;-0.0887;0.6575;1.6241;1.754
11.022000;0.1428;0.8903;1.2999;1.582
11.030000;0.3404;1.1239;0.9188;1.491
11.041000;0.3799;1.2951;0.5798;1.469
11.051000;0.3730;1.3211;0.3862;1.426
11.061000;0.5466;1.1631;0.4837;1.373
11.076000;0.7419;0.8006;1.0066;1.485
11.081000;0.7116;0.2397;1.6854;1.845
11.113000;0.3563;-0.3948;2.5425;2.597
11.115000;-0.1801;-0.9984;3.2907;3.444
11.115000;-0.8369;-1.4338;3.9243;4.261
11.122000;-1.3744;-1.6165;4.0915;4.609
11.131000;-1.7510;-1.6539;3.6463;4.370
11.141000;-1.8306;-1.4097;2.6801;3.539
11.151000;-1.6424;-0.9572;1.3964;2.359
11.161000;-1.3933;-0.5184;0.0984;1.490
11.179000;-1.1199;-0.2632;-0.7959;1.399
11.182000;-0.8001;-0.2344;-1.1626;1.431
11.225000;-0.4660;-0.3803;-0.9401;1.116
11.227000;-0.1689;-0.5808;-0.5511;0.818
11.228000;-0.0184;-0.7790;-0.2563;0.820
11.229000;0.0264;-0.9627;0.1242;0.971
11.231000;-0.0706;-1.3924;0.1651;1.404
11.241000;-0.2678;-1.5549;0.0078;1.578
11.250000;-0.4891;-1.6569;-0.1042;1.731
11.261000;-0.6381;-1.6594;-0.3326;1.809
11.276000;-0.7190;-1.6029;-0.5831;1.851
11.281000;-0.7284;-1.4727;-0.8918;1.869
11.321000;-0.6775;-1.2642;-1.2744;1.919
11.322000;-0.5797;-1.0136;-1.6078;1.987
11.324000;-0.3787;-0.7514;-1.9008;2.079
11.325000;-0.1738;-0.5230;-2.0487;2.122
11.331000;0.0318;-0.3721;-2.1510;2.183
11.341000;0.1720;-0.2647;-2.3106;2.332
11.350000;0.2387;-0.1514;-2.3960;2.413
11.362000;0.2935;0.0169;-2.4656;2.483
11.376000;0.3398;0.1922;-2.4961;2.526
11.380000;0.3848;0.3496;-2.3641;2.421
11.417000;0.3251;0.3876;-2.1357;2.195
11.418000;0.1832;0.3757;-1.8372;1.884
11.421000;-0.0139;0.3743;-1.5444;1.589
11.422000;-0.2093;0.3932;-1.3627;1.434
11.431000;-0.3442;0.4409;-1.1680;1.295
11.442000;-0.4311;0.5113;-0.9406;1.154
11.451000;-0.3739;0.6549;-0.8085;1.106
11.461000;-0.2543;0.8410;-0.6633;1.101
11.472000;-0.1283;1.0093;-0.5065;1.136
11.480000;-0.1097;1.1767;-0.3251;1.226
11.492000;-0.2328;1.3627;-0.0653;1.384
11.500000;-0.4032;1.4824;0.1004;1.540
11.529000;-0.6160;1.5018;0.2004;1.636
11.531000;-0.8170;1.5121;0.3174;1.748
11.532000;-0.9693;1.5377;0.3617;1.853
11.540000;-1.0266;1.5833;0.2838;1.908
11.550000;-0.9343;1.7091;0.2409;1.963
11.561000;-0.1708;1.9571;0.4822;2.023
11.576000;0.2612;1.9241;0.7833;2.094
11.580000;0.4767;1.8453;1.2557;2.282
11.617000;0.3532;1.7549;1.6793;2.454
11.619000;0.0335;1.6674;1.7078;2.387
11.621000;-0.0694;1.5457;1.3544;2.056
11.622000;0.0404;1.3129;1.0892;1.706
11.631000;0.2211;1.0691;1.0402;1.508
11.641000;0.1539;0.7790;1.2652;1.494
11.650000;-0.0443;0.6439;1.4983;1.631
11.661000;0.1068;0.5700;1.7354;1.830
11.672000;0.8968;0.4896;2.1815;2.409
11.680000;1.8983;0.3264;2.7519;3.359
11.695000;2.4529;0.1033;3.3155;4.126
11.701000;2.4600;-0.4195;3.8076;4.553
11.744000;2.0352;-1.1465;4.2443;4.845
11.746000;1.5307;-2.0378;4.7592;5.399
11.748000;1.0869;-2.6022;5.2558;5.965
11.749000;0.8135;-2.9442;5.3468;6.158
11.752000;0.6901;-3.0755;4.9208;5.844
11.761000;0.7238;-2.8582;3.8557;4.854
11.773000;0.9331;-2.2545;2.1388;3.245
11.781000;1.1504;-1.6475;0.4270;2.054
11.792000;1.2526;-1.1842;-0.9615;1.974
11.801000;1.2489;-0.9016;-1.8736;2.425
11.813000;1.0602;-0.6589;-2.3951;2.701
11.858000;0.7339;-0.4748;-2.5214;2.669
11.860000;0.3881;-0.3566;-2.4041;2.461
11.862000;0.1458;-0.2674;-2.1640;2.185
11.863000;-0.0411;-0.2148;-1.8197;1.833
11.864000;-0.2155;-0.1805;-1.6005;1.625
11.873000;-0.3590;-0.1036;-1.4756;1.522
11.881000;-0.4251;0.0076;-1.4737;1.534
11.890000;-0.4250;0.1516;-1.7326;1.790
11.900000;-0.3390;0.2763;-1.8576;1.908
11.917000;-0.2994;0.2425;-1.7911;1.832
11.961000;-0.2337;0.2313;-1.6964;1.728
11.962000;-0.0640;0.2140;-1.5245;1.541
11.963000;-0.0001;0.2503;-1.2944;1.318
11.964000;0.0081;0.2245;-1.2362;1.256
11.973000;-0.0425;0.2658;-1.3943;1.420
11.980000;-0.1665;0.4139;-1.6472;1.707
11.990000;-0.2158;0.6140;-1.8813;1.991
12.000000;-0.1526;0.7267;-2.1038;2.231
12.011000;-0.0762;0.7720;-2.1881;2.322
12.044000;-0.0608;0.7456;-2.2270;2.349
12.046000;-0.2012;0.6295;-2.1016;2.203
12.047000;-0.3466;0.4865;-1.8265;1.922
12.050000;-0.4592;0.4171;-1.2876;1.429
12.061000;-0.4740;0.4189;-0.7269;0.964
12.071000;-0.3676;0.4736;-0.3935;0.717
12.080000;-0.2151;0.6343;-0.1455;0.685
12.093000;-0.0175;0.8497;0.0831;0.854
12.100000;0.1454;1.0663;0.1809;1.091
12.126000;0.1932;1.2050;0.1998;1.237
12.127000;0.1354;1.2382;0.1873;1.260
12.131000;0.0599;1.2731;0.2835;1.306
12.140000;0.0009;1.2789;0.4620;1.360
12.150000;0.0545;1.2064;0.6897;1.391
12.161000;0.2036;1.0343;0.9586;1.425
12.171000;0.3295;0.7772;1.3059;1.555
12.181000;0.1746;0.5147;1.7497;1.832
12.193000;-0.4515;0.2496;2.2931;2.350
12.200000;-1.0258;0.0825;2.1304;2.366
12.238000;-1.0873;0.1108;1.2607;1.668
12.240000;-0.8663;0.2635;0.7525;1.177
12.241000;-0.5200;1.1039;0.1143;1.226
12.242000;0.0393;1.4447;-0.3659;1.491
12.250000;0.9002;1.5794;-0.3804;1.857
12.261000;1.5466;1.4634;0.1049;2.132
12.271000;1.6563;1.1756;0.9770;2.254
12.280000;1.3454;0.7110;2.0891;2.585
12.294000;1.0125;0.3004;3.0000;3.180
12.300000;0.8404;0.0452;3.3798;3.483
12.343000;0.6677;-0.0680;3.3375;3.404
12.345000;0.3043;-0.1978;2.8065;2.830
12.346000;-0.1284;-0.4163;2.1179;2.162
12.347000;-0.5067;-0.5877;1.2953;1.510
12.350000;-0.7687;-0.6272;0.4258;1.080
12.360000;-0.9146;-0.7338;-0.2949;1.209
12.371000;-1.0508;-0.9521;-0.7423;1.601
12.380000;-1.1032;-1.2223;-0.9586;1.905
12.394000;-1.1393;-1.5765;-0.8379;2.118
12.400000;-1.1374;-1.9426;-0.4757;2.301
12.436000;-1.1684;-2.2253;-0.0593;2.514
12.438000;-1.2815;-2.3734;0.3464;2.719
12.439000;-1.4100;-2.3793;0.6258;2.836
12.441000;-1.4306;-2.2866;0.6871;2.783
12.451000;-1.3528;-2.0799;0.4774;2.527
12.461000;-1.1945;-1.7557;0.0718;2.125
12.473000;-1.0436;-1.3975;-0.4344;1.797
12.480000;-0.9186;-1.1333;-0.9751;1.755
12.491000;-0.8208;-0.9191;-1.3559;1.832
12.500000;-0.7678;-0.7227;-1.6529;1.961
12.511000;-0.7495;-0.5525;-1.9931;2.200
12.556000;-0.7612;-0.3902;-2.1812;2.343
12.557000;-0.7264;-0.2062;-2.2043;2.330
12.559000;-0.5988;-0.0065;-2.1999;2.280
12.561000;-0.4220;0.2116;-2.0669;2.120
12.562000;-0.0575;0.5805;-1.6540;1.754
12.571000;0.0506;0.7074;-1.5102;1.668
12.581000;0.0332;0.7993;-1.3318;1.554
12.593000;-0.1221;0.8116;-1.1904;1.446
12.600000;-0.3665;0.7188;-1.0997;1.364
12.635000;-0.5997;0.5267;-1.0991;1.358
12.636000;-0.7633;0.3593;-0.9630;1.280
12.638000;-0.7678;0.3789;-0.7137;1.115
12.641000;-0.6254;0.5581;-0.2161;0.866
12.651000;-0.4011;0.7797;0.4537;0.987
12.661000;-0.1973;0.9101;1.0022;1.368
12.671000;-0.1068;0.9819;1.1213;1.494
12.681000;-0.0429;1.0797;0.9630;1.447
12.694000;-0.0177;1.2432;0.5283;1.351
12.701000;-0.0417;1.3146;-0.0569;1.317
12.737000;-0.1992;1.3155;-0.3748;1.382
12.739000;-0.4059;1.1721;-0.1863;1.254
12.740000;-0.5325;1.1311;0.4190;1.319
12.741000;-0.6563;1.2308;1.1023;1.778
12.751000;-0.7611;1.4992;1.4750;2.237
12.762000;-0.6517;1.7305;1.4063;2.323
12.772000;-0.0856;1.9215;1.1527;2.242
12.781000;0.6126;1.8338;1.0609;2.205
12.797000;0.9074;1.5845;1.2914;2.237
12.803000;0.6476;1.2380;1.6493;2.162
12.845000;0.2404;0.8032;2.0886;2.251
12.847000;0.0371;0.2112;2.7025;2.711
12.848000;0.0970;-0.4035;3.6249;3.649
12.849000;0.2619;-0.8420;4.5781;4.662
12.851000;0.5715;-1.0461;5.0013;5.141
12.861000;0.9065;-1.0696;5.0325;5.224
12.871000;1.2664;-0.9859;5.0213;5.272
12.880000;1.7329;-0.9220;4.8874;5.267
12.897000;2.5448;-0.9338;3.9261;4.771
12.903000;2.5471;-0.9958;2.8387;3.942
12.945000;2.2041;-1.0485;1.4404;2.834
12.946000;1.6902;-1.1173;0.0669;2.027
12.947000;1.1678;-1.1100;-0.9380;1.864
12.948000;0.7860;-0.9951;-1.3638;1.862
12.951000;0.5772;-0.7183;-1.4767;1.741
12.961000;0.5263;-0.3731;-1.5645;1.692
12.971000;0.5771;-0.0504;-1.5513;1.656
12.981000;0.6409;0.1817;-1.4068;1.557
12.995000;0.6941;0.3514;-1.3896;1.593
13.000000;0.7194;0.5157;-1.4680;1.714
13.039000;0.7952;0.6403;-1.6409;1.933
13.041000;0.8706;0.6292;-1.7968;2.093
13.042000;0.8443;0.5025;-1.9374;2.172
13.043000;0.7071;0.3331;-1.9703;2.120
13.050000;0.5239;0.2141;-1.7424;1.832
13.061000;0.4548;0.1186;-1.3198;1.401
13.071000;0.4789;0.0609;-0.9925;1.104
13.081000;0.5849;0.1059;-0.9926;1.157
13.098000;0.7136;0.2899;-1.3200;1.528
13.102000;0.7390;0.4347;-1.6410;1.851
13.145000;0.7089;0.4638;-2.0111;2.182
13.146000;0.6421;0.5238;-2.1642;2.317
13.147000;0.5756;0.6231;-2.4977;2.638
13.149000;0.3901;0.5477;-2.5181;2.606
13.151000;0.0814;0.3162;-2.3877;2.410
13.160000;-0.2167;0.0535;-2.3330;2.344
13.170000;-0.4749;-0.1105;-2.2984;2.350
13.181000;-0.5578;-0.1144;-2.2353;2.307
13.195000;-0.4211;0.0046;-1.6072;1.661
13.200000;-0.1233;0.1436;-1.6000;1.611
13.234000;0.1499;0.2708;-1.2468;1.285
13.236000;0.2228;0.4149;-0.6860;0.832
13.237000;0.3360;0.9584;-0.2380;1.043
13.244000;0.3980;1.0498;0.1678;1.135
13.250000;0.4641;1.0087;0.4000;1.180
13.261000;0.4043;0.9463;0.4687;1.131
13.270000;0.2711;0.8792;0.5182;1.056
13.280000;0.0924;0.7726;0.8018;1.117
13.295000;-0.0510;0.5019;1.3514;1.443
13.300000;-0.2260;0.2554;2.0595;2.088
13.331000;-0.5465;0.2504;2.6306;2.698
13.332000;-0.8151;0.6276;2.6664;2.858
13.333000;-0.6783;1.1872;2.0590;2.472
13.341000;0.0006;1.7184;1.1097;2.046
13.350000;0.7027;2.1226;0.6552;2.330
13.361000;1.1256;2.3910;0.4937;2.688
13.370000;1.1376;2.4535;0.0012;2.704
13.381000;0.9301;2.1042;-0.4276;2.340
13.398000;0.7115;1.3234;-0.3036;1.533
13.453000;0.2557;-0.8276;1.3967;1.644
13.455000;-0.2197;-1.6125;2.4293;2.924
13.456000;-0.7861;-2.1940;3.2820;4.025
13.457000;-1.1515;-2.4232;3.6972;4.568
13.459000;-1.2142;-2.1475;3.5768;4.345
13.461000;-0.9831;-1.5579;2.7260;3.290
13.471000;-0.6060;-0.9423;1.4204;1.809
13.481000;-0.3237;-0.4439;0.2740;0.614
13.496000;-0.1609;-0.1681;-0.5650;0.611
13.500000;-0.0988;-0.1236;-0.7809;0.797
13.542000;-0.0137;-0.2993;-0.5270;0.606
13.544000;0.0671;-0.6097;-0.1005;0.622
13.545000;0.1052;-0.8612;0.5044;1.004
13.546000;0.0498;-1.0619;1.1110;1.538
13.551000;-0.1659;-1.2950;1.4003;1.915
13.561000;-0.9996;-1.8747;1.1871;2.434
13.571000;-1.2873;-2.0258;0.8607;2.550
13.581000;-1.4649;-2.1429;0.5174;2.647
13.596000;-1.4948;-2.1599;-0.0123;2.627
13.601000;-1.4330;-1.9421;-0.6428;2.498
13.637000;-1.2247;-1.4841;-1.2448;2.292
13.639000;-0.9437;-0.9449;-1.6387;2.114
13.640000;-0.6296;-0.4330;-1.9026;2.050
13.641000;-0.3085;-0.0250;-2.2097;2.231
13.650000;-0.0430;0.2593;-2.4522;2.466
13.661000;0.1299;0.4465;-2.5218;2.564
13.670000;0.1807;0.5386;-2.5156;2.579
13.680000;0.1549;0.4937;-2.4526;2.507
13.695000;0.0612;0.3780;-2.3505;2.382
13.700000;-0.1428;0.2605;-2.1814;2.202
13.730000;-0.3300;0.2249;-1.9580;1.998
13.732000;-0.3744;0.3098;-1.6426;1.713
13.732000;-0.2355;0.5351;-1.3691;1.489
13.741000;0.0092;0.8093;-1.1650;1.419
13.750000;0.1496;1.0157;-1.0911;1.498
13.760000;0.1446;1.1416;-1.1342;1.616
13.770000;-0.0282;1.1935;-1.1121;1.632
13.780000;-0.3142;1.1689;-0.9898;1.564
13.800000;-0.6377;1.0408;-0.9028;1.518
13.802000;-0.9539;0.8670;-0.6343;1.437
13.855000;-1.2450;0.6878;-0.3886;1.474
13.857000;-1.4377;0.5906;-0.0984;1.557
13.857000;-1.4427;0.6336;0.1656;1.584
13.858000;-1.1637;0.9053;0.1581;1.483
13.859000;-0.7342;1.2958;0.0234;1.490
13.861000;-0.3718;1.5729;0.0964;1.619
13.871000;-0.1724;1.7053;0.3991;1.760
13.881000;-0.1254;1.6035;0.9016;1.844
13.896000;-0.5615;1.4365;2.2284;2.710
13.900000;-0.7971;1.4100;2.3825;2.881
13.941000;-0.7363;1.4855;2.1366;2.704
13.943000;-0.3869;1.5640;1.9708;2.546
13.943000;0.1184;1.5972;2.1511;2.682
13.945000;0.5569;1.6202;2.3105;2.876
13.951000;0.9492;1.6640;2.2856;2.982
13.960000;1.2869;1.6128;2.2240;3.034
13.970000;1.6398;1.3398;2.2418;3.084
13.980000;1.8286;0.9203;2.4437;3.188
13.998000;1.7405;0.3644;2.8312;3.343
14.002000;1.5640;-0.3108;3.3353;3.697
14.045000;1.4298;-0.9259;3.7796;4.146
14.047000;1.3547;-1.4005;3.9256;4.383
14.048000;1.1777;-1.7315;3.8248;4.360
14.050000;0.9875;-1.9632;3.4015;4.050
14.052000;0.8150;-2.1054;2.6351;3.470
14.061000;0.6237;-2.1168;1.6125;2.733
14.070000;0.4845;-2.0154;0.4622;2.124
14.081000;0.3806;-1.8421;-0.5666;1.965
14.098000;0.3213;-1.6282;-0.9462;1.910
14.102000;0.3545;-1.4133;-0.8493;1.686
14.142000;0.4116;-1.1302;-0.4818;1.296
14.144000;0.5030;-0.7806;-0.2073;0.951
14.145000;0.5916;-0.4768;-0.0611;0.762
14.145000;0.5892;-0.2065;-0.0603;0.627
14.151000;0.5102;0.0554;-0.3798;0.638
14.161000;0.4043;0.3503;-0.9053;1.052
14.171000;0.3733;0.6304;-1.4380;1.614
14.181000;0.4157;0.7925;-1.8803;2.082
14.197000;0.4582;0.8027;-2.1950;2.382
14.200000;0.4143;0.7134;-2.3697;2.509
14.241000;0.3388;0.5658;-2.4205;2.509
14.243000;0.2145;0.3456;-2.1711;2.209
14.244000;0.2563;0.3080;-1.9908;2.031
14.245000;0.3075;0.3386;-1.9165;1.970
14.250000;0.3221;0.4074;-1.8579;1.929
14.260000;0.3173;0.4409;-1.8374;1.916
14.270000;0.2995;0.3695;-1.9598;2.017
14.281000;0.1445;0.1636;-2.1275;2.139
14.297000;-0.0902;-0.0240;-2.2119;2.214
14.301000;-0.2976;-0.1347;-2.1611;2.186
14.346000;-0.4082;-0.2185;-1.9080;1.963
14.348000;-0.4648;-0.1987;-1.5436;1.624
14.349000;-0.5110;-0.1396;-1.2150;1.325
14.350000;-0.4874;-0.0277;-1.0814;1.186
14.352000;-0.4058;0.0858;-0.8544;0.950
14.361000;-0.2601;0.2323;-0.6544;0.742
14.370000;-0.1071;0.4650;-0.4459;0.653
14.381000;0.0376;0.6861;-0.2718;0.739
14.391000;0.1917;0.8842;-0.1191;0.913
14.408000;0.2699;1.0450;0.2911;1.118
14.421000;0.1992;1.0766;0.6245;1.261
14.438000;0.1652;1.0402;1.1203;1.538
14.441000;0.2117;0.8349;1.6731;1.882
14.450000;0.0400;0.5759;2.2121;2.286
14.460000;-0.3775;0.4646;2.4580;2.530
14.470000;-0.6602;0.5446;2.0301;2.203
14.481000;-0.5048;0.6196;1.3181;1.542
14.491000;-0.1334;0.7897;0.8140;1.142
14.502000;0.0011;1.1350;0.6253;1.296
14.544000;-0.0042;1.5425;0.4398;1.604
14.546000;0.2847;1.7917;0.3503;1.848
14.547000;1.1624;1.1191;1.5159;2.214
14.580000;1.1613;1.1178;1.5167;2.213
14.583000;0.7327;-0.1025;2.8478;2.942
14.584000;0.3293;-0.5682;3.4200;3.482
14.585000;-0.0251;-0.9153;3.6522;3.765
14.587000;-0.4019;-0.9734;3.1207;3.294
14.590000;-0.6607;-1.0233;2.2799;2.585
14.638000;-0.8006;-0.8954;1.0730;1.611
14.640000;-0.8634;-0.6289;-0.1846;1.084
14.642000;-1.0271;-0.3822;-1.2437;1.658
14.643000;-1.0335;-0.2807;-1.9415;2.217
14.649000;-0.8891;-0.3947;-2.2620;2.462
14.664000;-0.3396;-0.7740;-1.5709;1.784
14.670000;-0.1349;-0.9424;-0.8470;1.274
14.681000;-0.0740;-1.1355;-0.1911;1.154
14.690000;-0.1991;-1.4133;0.2053;1.442
14.700000;-0.5213;-1.7657;0.4843;1.904
14.740000;-0.8370;-2.0176;0.5076;2.243
14.742000;-1.0767;-2.1540;0.4182;2.444
14.743000;-1.1904;-2.1588;0.2281;2.476
14.745000;-1.1363;-1.9883;0.0428;2.290
14.750000;-0.8831;-1.6386;-0.1708;1.869
14.760000;-0.4818;-1.1821;-0.5130;1.376
14.770000;-0.0923;-0.7366;-0.8746;1.147
14.780000;0.2198;-0.3208;-1.2107;1.272
14.790000;0.4059;-0.0510;-1.5754;1.628
14.800000;0.4870;0.1243;-2.0357;2.097
14.834000;0.4602;0.2978;-2.4005;2.462
14.836000;0.3257;0.4386;-2.6815;2.737
14.837000;0.1656;0.6062;-2.9517;3.018
14.841000;0.0193;0.8165;-3.0950;3.201
14.851000;-0.0795;0.9561;-3.0190;3.168
14.860000;-0.1856;1.0020;-2.7637;2.946
14.870000;-0.2410;1.0273;-2.3591;2.584
14.880000;-0.2345;1.1116;-0.9361;1.472
14.891000;-0.2128;1.0911;-0.0108;1.112
14.901000;-0.2110;1.0799;0.7194;1.315
14.937000;-0.3513;1.0458;1.1547;1.597
14.938000;-0.6032;0.9829;1.4284;1.836
14.940000;-0.7780;0.9322;1.5752;1.989
14.941000;-0.8183;0.9444;1.5935;2.025
14.951000;-0.7508;1.0162;1.5365;1.989
14.960000;-0.5800;1.0949;1.3468;1.830
14.970000;-0.3405;1.2148;1.2533;1.778
14.980000;-0.1470;1.4545;1.4271;2.043
14.990000;-0.1254;1.7034;1.8893;2.547
15.000000;-0.0019;1.8634;1.9204;2.676
15.040000;0.4019;1.7340;1.4453;2.293
15.041000;0.8065;1.4113;1.1697;2.003
15.042000;0.6474;1.1080;1.4956;1.971
15.042000;0.2196;0.9317;1.6918;1.944
15.050000;0.0527;0.6239;1.9583;2.056
15.060000;0.3741;0.0998;2.6411;2.669
15.070000;0.8099;-0.4288;3.3579;3.481
15.081000;1.0275;-0.7316;3.7957;4.000
15.092000;1.1455;-0.8313;4.0010;4.244
15.105000;1.3156;-0.8554;4.0526;4.346
15.161000;1.5612;-0.8188;4.0223;4.392
15.163000;1.8471;-0.8256;3.8291;4.331
15.165000;2.0896;-0.8022;3.3949;4.066
15.166000;2.1316;-0.8182;2.7530;3.577
15.167000;1.8666;-0.9520;1.5886;2.629
15.169000;1.2218;-1.1025;0.0006;1.646
15.170000;0.4551;-1.2972;-1.3651;1.937
15.180000;-0.2135;-1.4077;-2.3318;2.732
15.191000;-0.7515;-1.5249;-2.8387;3.309
15.201000;-1.2178;-1.6454;-2.9250;3.570
15.248000;-1.5444;-1.6355;-1.9018;2.946
15.250000;-1.3282;-1.3586;-1.0011;2.148
15.251000;-0.8908;-0.9069;-0.3381;1.315
15.252000;-0.4607;-0.4542;-0.0478;0.649
15.253000;-0.1435;-0.0452;-0.1859;0.239
15.261000;0.0185;0.2785;-0.5424;0.610
15.270000;0.1385;0.5052;-0.9357;1.072
15.282000;0.2743;0.5722;-1.4042;1.541
15.290000;0.3243;0.5571;-1.8555;1.964
15.301000;0.3323;0.4877;-1.9352;2.023
15.338000;0.3443;0.3009;-1.8129;1.870
15.341000;0.4206;0.1619;-1.4893;1.556
15.342000;0.4833;0.1222;-0.9013;1.030
15.343000;0.5356;0.0983;-0.4496;0.706
15.350000;0.4895;0.0668;-0.3065;0.581
15.361000;0.3864;0.0507;-0.4562;0.600
15.371000;0.2295;0.0464;-0.8335;0.866
15.381000;-0.0421;-0.0284;-1.3937;1.395
15.390000;-0.3628;-0.1037;-1.7911;1.830
15.402000;-0.5927;-0.1259;-2.0439;2.132
15.454000;-0.6890;0.0116;-2.2556;2.359
15.456000;-0.6184;0.2272;-2.1773;2.275
15.457000;-0.4088;0.4644;-1.8334;1.935
15.459000;-0.0412;0.7722;-1.3938;1.594
15.460000;0.3043;1.1057;-0.9823;1.510
15.463000;0.5151;1.4127;-0.5333;1.595
15.470000;0.8244;1.7447;0.0449;1.930
15.481000;1.1126;1.9781;0.6522;2.361
15.490000;1.2267;2.0354;1.0401;2.594
15.501000;1.0601;1.8775;1.3571;2.548
15.550000;0.8068;1.5365;1.4245;2.245
15.552000;0.6100;1.0861;1.1653;1.706
15.552000;0.3179;0.5806;0.9773;1.180
15.553000;-0.3137;0.2062;0.9795;1.049
15.554000;-1.2571;-0.0645;0.3847;1.316
15.561000;-1.0939;0.0031;-0.0026;1.094
15.571000;-1.0511;0.3096;0.1528;1.106
15.580000;-1.0656;0.7436;0.2267;1.319
15.591000;-0.6819;1.0758;0.3831;1.330
15.601000;0.0376;1.1791;1.0483;1.578
15.638000;0.6193;1.0064;1.9157;2.251
15.640000;0.7646;0.5979;2.6633;2.835
15.641000;0.4960;0.0455;3.2627;3.300
15.644000;0.1042;-0.4538;3.5438;3.574
15.650000;-0.3152;-0.9393;3.6981;3.829
15.662000;-0.7414;-1.1737;3.6057;3.864
15.670000;-1.1267;-1.2024;2.9787;3.404
15.680000;-1.3145;-0.9781;1.9908;2.578
15.690000;-1.2787;-0.6495;0.9949;1.745
15.701000;-1.0982;-0.4073;0.2985;1.209
15.758000;-0.8717;-0.3020;-0.0369;0.923
15.760000;-0.6173;-0.3806;-0.0035;0.725
15.761000;-0.3212;-0.5819;0.0388;0.666
15.761000;-0.0149;-0.8021;-0.1169;0.811
15.763000;0.1815;-1.0180;-0.2382;1.061
15.764000;0.2042;-1.2713;-0.1945;1.302
15.770000;0.0241;-1.5205;0.1235;1.526
15.780000;-0.2098;-1.6427;0.5209;1.736
15.791000;-0.4204;-1.7283;0.5921;1.875
15.802000;-0.6070;-1.7648;0.2669;1.885
15.852000;-0.7611;-1.7471;-0.1392;1.911
15.854000;-0.8056;-1.6709;-0.8636;2.046
15.855000;-0.8178;-1.5446;-1.5856;2.360
15.855000;-0.8105;-1.2637;-2.1118;2.591
15.857000;-0.7357;-1.0070;-2.4848;2.780
15.862000;-0.5934;-0.7708;-2.6693;2.841
15.871000;-0.2888;-0.5291;-2.3508;2.427
15.881000;-0.1883;-0.0127;-2.1100;2.118
15.890000;-0.0915;0.1444;-2.0084;2.016
15.901000;-0.0444;0.2264;-1.9932;2.006
15.948000;-0.0604;0.3201;-2.1082;2.133
15.950000;-0.1103;0.3815;-2.1761;2.212
15.951000;-0.2066;0.4432;-2.2315;2.284
15.952000;-0.3385;0.5795;-2.0927;2.198
15.953000;-0.4377;0.7255;-1.7743;1.966
15.962000;-0.4945;0.8125;-1.2996;1.610
15.970000;-0.5464;0.8335;-0.8301;1.297
15.981000;-0.5741;0.8858;-0.3929;1.126
15.990000;-0.5507;0.9790;-0.0842;1.126
16.001000;-0.4867;1.1164;0.1663;1.229
16.038000;-0.4267;1.3352;0.3517;1.445
16.040000;-0.4068;1.5853;0.4798;1.706
16.041000;-0.4240;1.7801;0.5891;1.922
16.042000;-0.4168;1.8860;0.6568;2.040
16.050000;-0.3996;1.9103;0.8650;2.135
16.061000;-0.2805;1.9546;0.9929;2.210
16.070000;-0.1757;1.8766;1.2080;2.239
16.081000;-0.0938;1.7265;1.5561;2.326
16.090000;-0.0332;1.5678;2.0052;2.546
16.101000;-0.1594;1.5347;2.4930;2.932
16.147000;-0.3471;1.5318;2.8282;3.235
16.149000;-0.3702;1.4120;2.8899;3.238
16.152000;-0.0793;1.1898;2.8585;3.097
16.153000;0.0721;0.8656;3.0351;3.157
16.154000;-0.0428;0.6773;3.2456;3.316
16.162000;-0.1251;0.6672;2.9823;3.059
16.171000;0.1437;0.6320;2.8034;2.877
16.181000;0.6015;0.4087;2.7896;2.883
16.190000;0.9707;0.0258;2.6803;2.851
16.201000;1.0830;-0.3746;2.5112;2.760
16.241000;0.8194;-1.0706;2.5446;2.880
16.242000;0.7526;-1.4054;2.7311;3.162
16.244000;0.6931;-1.7325;2.9325;3.476
16.245000;0.7554;-1.9655;2.8472;3.541
16.250000;0.8973;-2.0223;2.2299;3.141
16.263000;0.9223;-1.8786;1.1726;2.399
16.270000;0.8146;-1.6583;-0.1012;1.850
16.280000;0.6301;-1.5764;-1.3425;2.164
16.290000;0.3937;-1.5612;-2.4684;2.947
16.301000;0.1286;-1.6032;-3.1179;3.508
16.346000;-0.1616;-1.6195;-3.1430;3.539
16.348000;-0.3573;-1.5226;-2.4827;2.934
16.349000;-0.3181;-1.3193;-1.6223;2.115
16.350000;-0.0948;-1.0155;-0.9062;1.364
16.352000;0.1566;-0.6524;-0.5543;0.870
16.362000;0.3419;-0.3380;-0.5282;0.714
16.370000;0.4913;-0.0290;-0.7190;0.871
16.380000;0.6284;0.2328;-1.1321;1.316
16.390000;0.7692;0.4249;-1.5671;1.797
16.401000;0.7808;0.4411;-1.9942;2.187
16.436000;0.6230;0.3070;-2.1659;2.275
16.438000;0.3789;0.0980;-2.0655;2.102
16.438000;0.1985;-0.1003;-1.6999;1.714
16.440000;0.1091;-0.2295;-1.2106;1.237
16.450000;0.0725;-0.2913;-0.7597;0.817
16.461000;0.1323;-0.1761;-0.6268;0.664
16.471000;0.2540;0.0662;-0.8518;0.891
16.480000;0.4431;0.3561;-1.2059;1.333
16.490000;0.6081;0.6157;-1.5760;1.798
16.504000;0.6468;0.7946;-1.9786;2.228
16.565000;0.5608;0.8821;-2.3291;2.553
16.567000;0.3980;0.9272;-2.4130;2.615
16.569000;0.2293;0.8761;-2.2203;2.398
16.570000;-0.0908;0.6810;-0.7339;1.005
16.572000;-0.2378;0.5897;0.1152;0.646
16.573000;-0.3296;0.5851;0.8839;1.110
16.574000;-0.3482;0.6871;1.4887;1.676
16.580000;-0.2366;0.8572;1.7288;1.944
16.591000;-0.0995;1.0798;1.7060;2.021
16.601000;0.0221;1.2517;1.4978;1.952
16.611000;0.2644;1.3414;1.2338;1.842
16.647000;0.6049;1.3219;1.1211;1.836
16.649000;0.6932;1.1425;1.4798;1.994
16.649000;0.2818;0.9327;2.0032;2.228
16.651000;-0.0942;0.9224;1.7794;2.006
16.661000;0.1123;1.0555;1.0768;1.512
16.670000;0.6532;1.1935;0.9333;1.650
16.680000;0.8403;1.3942;1.4573;2.185
16.690000;0.8606;1.7313;1.7890;2.634
16.700000;1.2283;1.9342;1.8186;2.925
16.711000;1.9107;1.9775;2.0093;3.406
16.746000;2.3142;1.6847;2.2422;3.636
16.747000;2.1136;1.0450;2.3400;3.322
16.748000;1.5219;0.2667;2.3266;2.793
16.751000;0.7791;-0.4757;2.3752;2.545
16.760000;0.0973;-1.0783;2.4343;2.664
16.770000;-0.5911;-1.5630;2.3693;2.899
16.781000;-1.1331;-1.9367;2.1068;3.078
16.791000;-1.4978;-2.0691;1.6554;3.044
16.801000;-1.5645;-1.8818;0.8778;2.600
16.811000;-1.4621;-1.5929;-0.0990;2.164
16.849000;-1.3038;-1.4430;-0.9011;2.143
16.851000;-1.0767;-1.4409;-1.3160;2.229
16.852000;-0.8222;-1.5650;-1.4270;2.272
16.854000;-0.6707;-1.7712;-1.2716;2.281
16.862000;-0.6358;-1.9164;-0.9928;2.250
16.871000;-0.7541;-2.0793;-0.3349;2.237
16.881000;-1.0375;-2.3079;-0.2240;2.540
16.890000;-1.0007;-2.1353;-0.3492;2.384
16.901000;-0.7565;-1.7611;-0.6974;2.040
16.946000;-0.3500;-1.3423;-1.1801;1.821
16.948000;0.0397;-0.9544;-1.7286;1.975
16.950000;0.3152;-0.6115;-2.1466;2.254
16.951000;0.5371;-0.2586;-2.3634;2.437
16.952000;0.7502;0.0631;-2.4594;2.572
16.962000;0.8919;0.3478;-2.4903;2.668
16.970000;0.8883;0.5513;-2.4315;2.647
16.981000;0.8242;0.6680;-2.3903;2.615
16.990000;0.7513;0.7079;-2.3268;2.546
17.001000;0.6493;0.7184;-2.2277;2.429
17.011000;0.4600;0.7094;-2.1465;2.307
17.047000;0.2614;0.7273;-2.1529;2.287
17.048000;0.1075;0.7571;-2.1768;2.307
17.049000;0.0766;0.8021;-2.1540;2.300
17.051000;0.1004;0.8638;-1.9485;2.134
17.060000;0.1364;0.8874;-1.6390;1.869
17.070000;0.0973;0.9088;-1.1858;1.497
17.081000;-0.0455;0.8895;-0.6929;1.128
17.090000;-0.2311;0.7990;-0.2254;0.862
17.105000;-0.4447;0.6339;0.2155;0.804
17.112000;-0.7179;0.4812;0.6142;1.060
17.173000;-0.9295;0.4840;0.8652;1.359
17.175000;-0.9114;0.6959;0.9523;1.491
17.176000;-0.7845;0.9933;0.9960;1.611
17.176000;-0.6035;1.2074;1.0261;1.696
17.177000;-0.4307;1.3077;1.0192;1.713
17.178000;-0.3556;1.3195;1.0583;1.728
17.184000;-0.3629;1.3010;1.3320;1.897
17.190000;-0.5261;1.3313;2.0232;2.478
17.201000;-0.4374;1.2658;3.3183;3.578
17.210000;-0.1104;1.1895;3.3993;3.603
17.221000;0.0151;1.1961;3.5253;3.723
17.263000;-0.1416;1.2016;3.2942;3.509
17.265000;-0.3650;1.2064;2.9465;3.205
17.266000;-0.3969;1.0387;2.6226;2.849
17.268000;-0.1427;0.6850;2.6062;2.699
17.270000;0.1044;0.2727;2.8415;2.857
17.281000;0.2867;-0.0746;3.1357;3.150
17.290000;0.4802;-0.3594;3.4282;3.480
17.301000;0.7382;-0.6387;3.6034;3.733
17.311000;0.9552;-0.9065;3.6879;3.916
17.321000;1.1114;-1.2366;3.6463;4.008
17.379000;1.2310;-1.5024;3.5653;4.060
17.382000;1.2847;-1.6608;3.1436;3.780
17.383000;1.1515;-1.7335;2.2843;3.090
17.384000;0.8284;-1.7574;1.1118;2.238
17.385000;0.4974;-1.7460;-0.1134;1.819
17.386000;0.2159;-1.6378;-1.1529;2.015
17.391000;0.0480;-1.4606;-1.7939;2.314
17.402000;0.0447;-1.1869;-2.0770;2.393
17.410000;0.1211;-0.8681;-2.0615;2.240
17.421000;0.3194;-0.5171;-1.7495;1.852
17.464000;0.5200;-0.2322;-1.5491;1.650
17.466000;0.5705;-0.0366;-1.5901;1.690
17.467000;0.5050;0.0429;-1.5863;1.665
17.468000;0.4487;0.0282;-1.4565;1.524
17.471000;0.3670;-0.0043;-1.5081;1.552
17.481000;0.2539;-0.0259;-1.8377;1.855
17.490000;0.1136;-0.0101;-2.2457;2.249
17.501000;0.0315;0.0368;-2.5481;2.549
17.510000;0.0668;0.0808;-2.6342;2.636
17.548000;0.2177;0.1587;-2.5119;2.526
17.550000;0.3921;0.2842;-2.2658;2.317
17.551000;0.3915;0.3106;-1.7327;1.803
17.552000;0.3132;0.1968;-1.5837;1.626
17.560000;0.2623;0.1731;-1.5347;1.567
17.570000;0.2300;0.2006;-1.5955;1.624
17.580000;0.1427;0.2055;-1.8916;1.908
17.591000;-0.0262;0.2134;-2.1581;2.169
17.600000;-0.1994;0.2380;-2.2994;2.320
17.610000;-0.1891;0.3512;-2.1852;2.221
17.621000;-0.0422;0.5274;-1.8906;1.963
17.666000;0.1526;0.7603;-1.2982;1.512
17.668000;0.2516;1.0262;-0.6049;1.217
17.668000;0.2837;1.1711;0.3112;1.244
17.669000;0.1845;1.2332;0.9572;1.572
17.671000;0.0018;1.1206;1.4676;1.846
17.681000;-0.1853;1.0253;1.7870;2.069
17.690000;-0.2897;0.9955;1.6682;1.964
17.701000;-0.3859;0.9838;1.3147;1.687
17.710000;-0.3826;0.9990;1.0344;1.488
17.721000;-0.2883;0.9244;0.9080;1.327
17.762000;-0.3581;0.8395;0.9704;1.332
17.764000;-0.8465;0.8989;1.5655;1.994
17.764000;-1.3266;1.1236;1.7387;2.459
17.765000;-1.0376;1.3583;1.0138;1.987
17.770000;-0.2600;1.6469;0.7353;1.822
17.782000;0.1756;2.1512;1.3156;2.528
17.790000;0.1673;2.6707;1.7059;3.173
17.801000;0.3117;3.0484;1.2312;3.302
17.810000;0.8912;3.0486;0.8876;3.298
17.821000;1.4431;2.6816;0.9985;3.205
17.875000;1.4377;1.8968;1.2130;2.671
17.876000;0.9924;0.9943;1.5858;2.119
17.878000;0.4641;0.1545;2.1492;2.204
17.878000;-0.1822;-0.5798;2.8434;2.908
17.880000;-1.1168;-1.4734;2.4378;3.060
17.881000;-1.3597;-1.6441;1.5491;2.637
17.891000;-1.4832;-1.6130;0.3008;2.212
17.901000;-1.5171;-1.3802;-0.9869;2.276
17.910000;-1.4410;-1.1824;-2.0952;2.804
17.921000;-1.2236;-1.1406;-2.8179;3.277
17.966000;-0.8750;-1.2543;-3.0551;3.416
17.969000;-0.4830;-1.4921;-2.7141;3.135
17.970000;-0.1718;-1.7242;-2.1781;2.783
17.971000;-0.1047;-1.8961;-1.6331;2.505
17.973000;-0.2744;-2.1445;-1.0132;2.388
17.982000;-0.5660;-2.4452;-0.5465;2.569
17.990000;-0.7277;-2.6860;-0.3517;2.805
18.000000;-0.7974;-2.6674;-0.5127;2.831
18.010000;-0.7361;-2.3854;-0.9520;2.672
18.020000;-0.5505;-2.0062;-1.4447;2.533
18.031000;-0.2311;-1.6070;-1.7427;2.382
18.041000;0.0388;-1.2764;-1.9270;2.312
18.075000;0.2054;-1.0271;-2.0518;2.304
18.077000;0.1952;-0.8835;-2.1125;2.298
18.079000;0.1031;-0.7948;-2.1556;2.300
18.081000;0.0314;-0.6708;-2.2197;2.319
18.091000;0.0123;-0.4675;-2.1299;2.181
18.101000;0.0376;-0.1390;-1.9224;1.928
18.111000;0.1016;0.2299;-1.8718;1.889
18.121000;0.1529;0.5953;-1.8575;1.957
18.162000;0.1395;0.8773;-1.6599;1.883
18.163000;0.1874;0.9551;-1.1846;1.533
18.164000;0.1794;0.9569;-0.5324;1.110
18.164000;0.0667;0.9121;0.0789;0.918
18.171000;-0.1376;0.8317;0.7243;1.111
18.182000;-0.3454;0.7000;1.1643;1.402
18.190000;-0.5026;0.5859;1.5244;1.709
18.201000;-0.3625;0.7070;2.0333;2.183
18.210000;-0.0492;0.9812;2.1256;2.342
18.220000;0.3475;1.3311;2.1632;2.564
18.285000;0.5854;1.6712;2.3152;2.915
18.286000;0.6154;2.0231;2.5062;3.279
18.287000;0.5967;2.4670;2.5090;3.569
18.289000;0.7577;2.7344;2.1239;3.544
18.290000;1.1772;2.6114;1.5598;3.262
18.291000;1.4638;2.0918;1.3124;2.871
18.293000;1.2148;1.4026;1.3966;2.322
18.301000;0.6346;0.7157;1.5884;1.854
18.310000;0.2052;-0.0579;1.9157;1.928
18.321000;0.0559;-0.8849;2.5204;2.672
18.364000;-0.0352;-1.5277;3.2695;3.609
18.366000;0.2626;-2.0111;4.2159;4.678
18.367000;0.7430;-1.8845;4.4251;4.867
18.374000;1.2499;-1.6129;4.3559;4.810
18.385000;1.5983;-1.3062;3.7174;4.252
18.390000;1.6800;-0.9990;2.5819;3.238
18.400000;1.5678;-0.7138;1.0675;2.027
18.410000;1.3598;-0.5373;-0.3383;1.501
18.421000;1.2103;-0.4108;-1.2846;1.812
18.468000;1.0624;-0.2444;-1.6644;1.990
18.470000;0.8756;0.0156;-1.6335;1.853
18.471000;0.7548;0.3302;-1.3568;1.587
18.473000;0.6587;0.5186;-1.1035;1.386
18.474000;0.5152;0.5899;-0.8506;1.156
18.482000;0.3263;0.6065;-0.8066;1.061
18.490000;0.1125;0.5729;-0.9799;1.141
18.500000;-0.0539;0.5295;-1.3402;1.442
18.510000;-0.2000;0.4232;-1.7557;1.817
18.521000;-0.3497;0.3040;-2.2869;2.333
18.587000;-0.4621;0.1665;-2.4187;2.468
18.589000;-0.3866;0.0598;-2.3651;2.397
18.591000;-0.2363;0.0660;-2.1338;2.148
18.592000;-0.0873;0.1074;-1.9048;1.910
18.593000;0.0672;0.1802;-1.7711;1.781
18.594000;0.1810;0.2931;-1.7192;1.753
18.595000;0.1870;0.4225;-1.8431;1.900
18.600000;0.0801;0.4481;-2.1264;2.175
18.610000;-0.1249;0.4159;-2.5106;2.548
18.623000;-0.3681;0.3253;-2.8047;2.847
18.668000;-0.5690;0.1883;-2.7897;2.853
18.670000;-0.7533;0.0191;-2.2664;2.388
18.672000;-0.8061;-0.0023;-1.4362;1.647
18.673000;-0.7511;0.1265;-0.7200;1.048
18.674000;-0.6440;0.3741;-0.2481;0.785
18.682000;-0.4588;0.5728;0.0511;0.736
18.690000;-0.1929;0.7350;0.1730;0.779
18.700000;0.0142;0.8300;0.2878;0.879
18.711000;0.0859;0.9328;0.5173;1.070
18.721000;0.0378;0.9591;1.0993;1.459
18.783000;-0.1325;0.9160;1.9675;2.174
18.785000;-0.4478;0.8963;2.5571;2.746
18.787000;-0.5558;1.0712;2.4440;2.726
18.788000;-0.1395;1.4065;1.7973;2.286
18.789000;0.6204;1.7905;1.2727;2.283
18.790000;1.1506;2.1752;1.0004;2.656
18.791000;1.4020;2.4049;0.8943;2.924
18.802000;1.4418;2.2279;1.2828;2.948
18.810000;1.4992;1.5501;2.2726;3.133
18.820000;1.2793;0.5529;3.3633;3.641
18.868000;0.7838;-0.3849;4.0832;4.176
18.871000;-0.0594;-1.0940;4.7876;4.911
18.873000;-0.9168;-1.5434;5.2622;5.560
18.874000;-1.7905;-1.6887;3.6498;4.402
18.876000;-1.8003;-1.1425;1.9868;2.914
18.881000;-1.6647;-0.5256;0.2990;1.771
18.890000;-1.3912;-0.0686;-0.8775;1.646
18.905000;-0.9870;0.2720;-1.8303;2.097
18.910000;-0.5920;0.3802;-2.4211;2.521
18.957000;-0.3345;0.2330;-2.3516;2.387
18.959000;-0.3471;-0.2981;-1.5318;1.599
18.960000;-0.5073;-0.8965;-0.6849;1.237
18.961000;-0.7216;-1.4127;-0.0647;1.588
18.962000;-0.9505;-1.7768;0.1704;2.022
18.970000;-1.2586;-2.1289;0.2256;2.483
18.981000;-1.4698;-2.3061;-0.0394;2.735
18.990000;-1.4841;-2.2868;-0.6544;2.804
19.003000;-1.3103;-2.0460;-1.3360;2.773
19.010000;-1.0149;-1.6441;-1.9456;2.742
19.049000;-0.6776;-1.2472;-2.3715;2.764
19.051000;-0.4193;-1.0255;-2.4312;2.672
19.052000;-0.2359;-0.9108;-2.2673;2.455
19.054000;-0.1160;-0.7865;-2.2002;2.339
19.060000;-0.0821;-0.5910;-2.2445;2.322
19.071000;-0.0465;-0.3662;-2.3039;2.333
19.082000;0.0655;-0.1669;-2.2957;2.303
19.092000;0.2251;0.0642;-2.3321;2.344
19.103000;0.3260;0.2885;-2.3834;2.423
19.110000;0.3230;0.4575;-2.2471;2.316
19.158000;0.2063;0.5692;-2.1023;2.188
19.160000;0.1177;0.6439;-1.8666;1.978
19.161000;-0.0717;0.6019;-1.4446;1.567
19.162000;-0.2856;0.5045;-0.7437;0.943
19.163000;-0.3694;0.4809;0.0229;0.607
19.170000;-0.2484;0.5732;0.6684;0.915
19.184000;0.2051;0.7061;1.3163;1.508
19.190000;0.1670;0.8374;1.3280;1.579
19.201000;0.4405;0.9761;1.9445;2.220
19.210000;0.4880;1.1020;2.2318;2.536
19.226000;0.5165;1.3983;2.3631;2.794
19.284000;0.5733;1.6850;2.4790;3.052
19.286000;0.9937;1.9606;2.5621;3.376
19.287000;1.6423;2.0029;2.5885;3.662
19.288000;2.1539;1.8692;2.8480;4.030
19.290000;2.1964;1.5906;3.1307;4.142
19.291000;1.7408;1.0383;3.1654;3.759
19.292000;1.1131;0.3880;2.8986;3.129
19.301000;0.5925;-0.3437;2.7973;2.880
19.310000;0.2227;-1.1337;2.7327;2.967
19.320000;-0.0132;-1.7638;2.6951;3.221
19.332000;-0.0463;-2.0735;2.6859;3.393
19.366000;0.1558;-2.1355;2.8413;3.558
19.367000;0.6147;-1.8907;2.9114;3.525
19.368000;1.1283;-1.3715;2.5421;3.101
19.370000;1.4902;-0.6689;1.4473;2.182
19.381000;1.6072;-0.1272;-0.0047;1.612
19.391000;1.4856;0.1185;-1.2307;1.933
19.406000;1.2216;0.1838;-1.9090;2.274
19.410000;0.8904;0.1554;-2.0990;2.285
19.459000;0.5720;0.1235;-1.9116;1.999
19.461000;0.3646;0.0869;-1.4306;1.479
19.462000;0.2647;0.0830;-0.8974;0.939
19.463000;0.2222;0.1325;-0.5012;0.564
19.464000;0.1809;0.2545;-0.3415;0.463
19.471000;0.1620;0.3559;-0.3406;0.519
19.480000;0.1076;0.3788;-0.6286;0.742
19.491000;-0.0531;0.3380;-1.2639;1.309
19.504000;-0.3073;0.2519;-1.8945;1.936
19.510000;-0.5417;0.1370;-2.3436;2.409
19.551000;-0.6596;0.0620;-2.5200;2.606
19.553000;-0.5264;-0.0439;-2.3016;2.361
19.554000;-0.2630;0.0395;-2.1778;2.194
19.554000;0.0296;0.2222;-2.0754;2.087
19.560000;0.1548;0.3190;-2.1424;2.172
19.571000;0.0828;0.3463;-2.2237;2.252
19.581000;-0.0756;0.2930;-2.2720;2.292
19.591000;-0.2765;0.1588;-2.3143;2.336
19.604000;-0.5336;0.0401;-2.2647;2.327
19.610000;-0.8764;-0.0277;-1.9857;2.171
19.666000;-1.1301;-0.0137;-1.4800;1.862
19.668000;-1.1682;0.1097;-1.0379;1.566
19.669000;-0.9558;0.3042;-0.6193;1.179
19.669000;-0.6417;0.5419;-0.3247;0.901
19.672000;-0.4191;0.7362;0.0681;0.850
19.673000;-0.3129;0.7893;0.6379;1.062
19.681000;-0.3579;0.8557;1.2407;1.549
19.691000;-0.6411;0.9174;1.7531;2.080
19.705000;-1.0201;1.0482;1.9895;2.469
19.710000;-0.9712;1.3058;1.7839;2.415
19.754000;-0.2145;1.6862;1.1471;2.051
19.756000;0.7711;2.1338;0.8346;2.418
19.756000;1.4883;2.5386;1.1664;3.165
19.758000;1.7597;2.5859;2.1618;3.802
19.760000;1.8225;2.1520;3.5042;4.498
19.770000;1.7482;1.2974;4.7302;5.207
19.781000;1.3304;0.2687;5.5488;5.712
19.791000;0.4799;-0.7254;5.9082;5.972
19.808000;-0.5854;-1.6145;5.9176;6.162
19.870000;-1.5028;-2.1518;5.5733;6.160
19.873000;-2.0918;-2.3158;4.5940;5.554
19.874000;-2.1138;-1.6967;2.9451;4.003
19.875000;-1.8384;-0.9547;1.1165;2.353
19.876000;-1.3949;-0.3411;-1.2163;1.882
19.877000;-0.4900;0.2667;-1.7598;1.846
19.878000;-0.1607;0.1200;-1.9555;1.966
19.881000;-0.0131;-0.3000;-1.8352;1.860
19.891000;-0.0632;-0.7359;-1.3762;1.562
19.906000;-0.2824;-1.0930;-1.0188;1.521
19.911000;-0.5298;-1.4125;-0.4572;1.576
19.955000;-0.7549;-1.6577;-0.3540;1.856
19.956000;-0.9569;-1.8096;-0.5799;2.128
19.958000;-1.0649;-1.7628;-1.0021;2.290
19.959000;-0.8823;-1.5477;-1.5946;2.391
19.961000;-0.5207;-1.2786;-2.2000;2.597
19.971000;-0.2291;-1.0043;-2.6594;2.852
19.981000;-0.0625;-0.8065;-2.8321;2.945
19.991000;-0.0413;-0.6683;-2.8534;2.931
20.004000;-0.0614;-0.5580;-2.8235;2.879
20.010000;-0.0812;-0.4413;-2.7515;2.788
20.062000;-0.0262;-0.2675;-2.7255;2.739
20.064000;0.0434;-0.0521;-2.6706;2.671
20.065000;0.1255;0.1832;-2.6559;2.665
20.067000;0.2243;0.4987;-2.6707;2.726
20.067000;0.2857;0.7998;-2.7353;2.864
20.072000;0.3276;1.0539;-2.7409;2.955
20.081000;0.3310;1.2413;-2.6042;2.904
20.091000;0.1792;1.2640;-2.1780;2.525
20.106000;-0.1828;1.0900;-1.2065;1.636
20.110000;-0.5585;0.7669;-0.2207;0.974
20.153000;-0.8020;0.4831;0.4889;1.056
20.154000;-0.8491;0.3620;0.9719;1.340
20.155000;-0.5991;0.5405;1.2745;1.508
20.156000;-0.1739;0.8865;1.6527;1.883
20.160000;0.3070;1.0631;2.2730;2.528
20.171000;0.8446;1.4195;2.4689;2.970
20.181000;1.1045;1.7195;2.7163;3.399
20.190000;0.8819;2.3332;2.8810;3.811
20.205000;0.7689;2.5193;2.6405;3.730
20.210000;0.9673;2.3685;2.1081;3.315
20.256000;1.2249;1.9545;1.8780;2.974
20.258000;1.0157;1.3270;2.2822;2.829
20.259000;0.5352;0.6309;2.6316;2.759
20.260000;0.1906;-0.0764;2.6455;2.653
20.261000;0.0215;-0.8556;2.8791;3.004
20.270000;-0.1112;-1.5065;3.2383;3.573
20.280000;-0.2896;-1.8982;3.4747;3.970
20.290000;-0.3008;-1.9633;3.6102;4.121
20.305000;0.0040;-1.8279;3.7081;4.134
20.310000;0.5858;-1.5331;3.5828;3.941
20.353000;1.1373;-1.1369;3.1843;3.567
20.356000;1.3386;-0.8239;2.3778;2.850
20.357000;1.1962;-0.6811;1.0984;1.761
20.359000;0.9355;-0.6505;-0.4569;1.228
20.361000;0.6854;-0.7011;-1.8370;2.082
20.371000;0.4200;-0.8089;-2.6439;2.797
20.380000;0.1341;-0.9124;-2.8330;2.979
20.390000;-0.1778;-1.0158;-2.4655;2.672
20.405000;-0.3695;-1.0107;-1.7120;2.022
20.410000;-0.3513;-0.8836;-1.0290;1.401
20.469000;-0.2868;-0.7526;-0.5825;0.994
20.471000;-0.2955;-0.7234;-0.2502;0.820
20.472000;-0.3552;-0.5387;-0.4461;0.784
20.473000;-0.3554;-0.3057;-0.6817;0.827
20.474000;-0.2818;-0.0307;-1.3017;1.332
20.475000;-0.1794;0.1615;-2.1011;2.115
20.480000;-0.1334;0.2336;-2.7770;2.790
20.491000;-0.1399;0.1922;-3.1106;3.120
20.507000;0.2177;0.2344;-2.8937;2.911
20.511000;0.2177;0.2243;-2.8892;2.906
20.554000;0.4175;0.3062;-2.0550;2.119
20.556000;0.4605;0.3260;-1.6381;1.732
20.556000;0.3385;0.3414;-1.3554;1.438
20.558000;0.2665;0.4405;-1.3384;1.434
20.561000;0.2220;0.5811;-1.3296;1.468
20.571000;0.1304;0.6370;-1.2321;1.393
20.581000;-0.0105;0.6331;-1.0634;1.238
20.590000;-0.2510;0.6243;-0.8042;1.049
20.605000;-0.5157;0.6213;-0.4040;0.903
20.610000;-0.6574;0.6003;-0.1007;0.896
20.658000;-0.6100;0.5302;0.1854;0.829
20.660000;-0.5450;0.5146;0.5885;0.953
20.661000;-0.5390;0.5162;1.1900;1.405
20.661000;-0.4846;0.6402;1.6946;1.875
20.663000;-0.3173;0.8168;1.9981;2.182
20.671000;-0.1817;1.0020;2.2038;2.428
20.680000;-0.2853;1.2670;2.3263;2.664
20.690000;-0.4039;1.6202;2.0315;2.630
20.706000;-0.1082;2.0069;1.2775;2.381
20.710000;0.5645;2.4241;0.4445;2.528
20.751000;1.0484;2.9114;-0.0182;3.094
20.752000;1.1677;3.2660;-0.0256;3.469
20.753000;1.1706;3.1419;0.3761;3.374
20.754000;1.3234;2.3966;1.5611;3.151
20.761000;1.4371;1.3149;2.8336;3.439
20.770000;1.2021;0.2403;3.9099;4.098
20.780000;0.4943;-0.6766;5.1624;5.230
20.790000;-0.4105;-1.3434;6.0491;6.210
20.806000;-1.1573;-1.7566;6.0312;6.388
20.810000;-1.6145;-1.7554;4.8799;5.431
20.862000;-1.6758;-1.3136;2.9369;3.628
20.864000;-1.4707;-0.7449;0.6588;1.775
20.865000;-1.2330;-0.2647;-1.0376;1.633
20.867000;-0.9556;0.1090;-2.3668;2.555
20.868000;-0.2688;0.2563;-3.4285;3.449
20.872000;-0.0058;-0.1636;-2.8825;2.887
20.880000;-0.0426;-0.8585;-2.0114;2.187
20.890000;-0.3312;-1.4271;-1.1416;1.857
20.908000;-0.6914;-1.8525;-0.4421;2.026
20.911000;-1.0033;-2.1307;-0.2135;2.365
20.956000;-1.2799;-2.3467;-0.2232;2.682
20.958000;-1.3950;-2.3761;-0.6384;2.828
20.959000;-1.2924;-2.1494;-1.2675;2.810
20.960000;-0.9812;-1.6949;-1.9609;2.771
20.962000;-0.5828;-1.2234;-2.5410;2.880
20.970000;-0.2619;-0.8462;-2.8750;3.008
20.980000;-0.0736;-0.5746;-3.0142;3.069
20.990000;0.0199;-0.3714;-3.1200;3.142
21.006000;0.0428;-0.2653;-3.1249;3.136
21.010000;0.0371;-0.1806;-3.0854;3.091
21.075000;0.1151;-0.0221;-3.0263;3.029
21.077000;0.2805;0.2124;-2.9799;3.001
21.078000;0.4633;0.5065;-2.8583;2.940
21.079000;0.5919;0.8290;-2.6634;2.852
21.081000;0.6665;1.0814;-2.3329;2.656
21.082000;0.5834;1.2354;-1.9892;2.413
21.084000;0.3520;1.2104;-1.4890;1.951
21.090000;0.0891;1.0873;-0.9160;1.425
21.101000;-0.1401;0.8887;-0.1683;0.915
21.111000;-0.2449;0.6900;0.8150;1.096
21.157000;-0.1448;0.6373;1.8160;1.930
21.158000;0.0887;0.7023;2.4563;2.556
21.159000;0.4260;0.8093;2.8854;3.027
21.161000;0.6758;0.9124;3.1005;3.302
21.162000;0.8264;1.0360;3.2632;3.522
21.170000;0.8801;1.2403;3.4146;3.738
21.180000;0.8773;1.6068;3.4512;3.907
21.192000;1.2218;2.2204;2.6368;3.657
21.201000;1.5895;2.1814;2.1790;3.469
21.211000;1.6537;1.8276;2.0635;3.214
21.268000;1.3048;1.1802;2.1086;2.746
21.271000;0.7941;0.3809;2.2100;2.379
21.272000;0.4056;-0.4079;2.4730;2.539
21.273000;0.0630;-1.0991;2.7356;2.949
21.275000;-0.2272;-1.6657;2.8751;3.331
21.276000;-0.3738;-1.9591;2.8572;3.484
21.280000;-0.1796;-2.0027;2.8570;3.494
21.290000;0.2465;-1.7540;2.6676;3.202
21.308000;0.5567;-1.3286;2.0556;2.510
21.312000;0.5493;-0.8815;0.9436;1.403
21.354000;0.3578;-0.6704;-0.4114;0.864
21.356000;0.1551;-0.7297;-1.6452;1.806
21.357000;-0.0551;-0.9426;-2.3496;2.532
21.358000;-0.2726;-1.0963;-2.4770;2.722
21.361000;-0.4665;-1.0501;-2.1453;2.434
21.371000;-0.5171;-0.9262;-1.4189;1.772
21.380000;-0.3976;-0.6960;-0.6477;1.031
21.392000;-0.2209;-0.3957;0.0391;0.455
21.401000;-0.1226;-0.1750;0.4272;0.478
21.411000;-0.1014;0.0253;0.4692;0.481
21.474000;-0.1216;0.2369;0.2166;0.343
21.476000;-0.2382;0.3258;-0.5074;0.648
21.477000;-0.5059;0.3341;-1.4718;1.592
21.478000;-0.7922;0.3162;-2.2339;2.391
21.480000;-0.9194;0.2615;-2.5971;2.767
21.482000;-0.8476;0.1829;-2.5691;2.711
21.483000;-0.5760;0.2116;-2.2854;2.366
21.490000;-0.2613;0.3412;-1.9578;2.004
21.509000;-0.0031;0.5378;-1.7304;1.812
21.512000;0.1203;0.6862;-1.7098;1.846
21.556000;0.0436;0.7296;-1.9867;2.117
21.558000;-0.0778;0.6030;-1.9226;2.016
21.559000;-0.1596;0.5376;-1.6161;1.711
21.560000;-0.2129;0.5118;-1.1046;1.236
21.561000;-0.2739;0.5126;-0.4860;0.758
21.571000;-0.3558;0.5901;-0.0809;0.694
21.580000;-0.4186;0.7555;-0.0075;0.864
21.590000;-0.3730;0.9512;-0.0183;1.022
21.601000;-0.2459;1.0118;0.0691;1.043
21.611000;-0.0764;0.9976;0.1676;1.014
21.669000;0.0833;1.0278;0.4085;1.109
21.671000;0.1657;1.2045;0.7694;1.439
21.672000;0.0602;1.4325;1.2692;1.915
21.673000;-0.1684;1.5558;1.6647;2.285
21.673000;-0.1276;1.6594;1.6015;2.310
21.674000;0.3997;1.8509;1.0875;2.184
21.680000;1.2207;2.2680;0.4338;2.612
21.691000;1.7956;2.6302;0.4192;3.212
21.700000;2.0255;2.6692;1.3119;3.598
21.711000;2.0052;2.1836;2.6393;3.969
21.754000;1.8003;1.2660;3.9233;4.498
21.756000;1.2941;0.1954;5.1497;5.313
21.757000;0.4229;-0.8797;6.0650;6.143
21.759000;-0.5870;-1.7383;6.3723;6.631
21.760000;-1.4612;-2.1490;5.9037;6.450
21.772000;-1.8641;-1.9830;4.5106;5.268
21.780000;-1.7598;-1.3615;2.3609;3.244
21.790000;-1.4487;-0.6811;0.3307;1.635
21.801000;-1.1260;-0.0386;-1.0690;1.553
21.811000;-0.7410;0.4017;-2.1648;2.323
21.872000;-0.3901;0.6152;-2.9331;3.022
21.874000;-0.1680;0.5601;-3.3007;3.352
21.875000;-0.0779;0.1824;-3.2994;3.305
21.876000;-0.1238;-0.4147;-2.3704;2.410
21.877000;-0.3265;-1.2896;-1.7234;2.177
21.878000;-0.5875;-1.6258;-1.2043;2.107
21.880000;-0.8499;-1.9276;-0.8847;2.285
21.891000;-1.0559;-2.0630;-0.8653;2.474
21.900000;-1.1172;-2.0406;-1.1011;2.574
21.911000;-1.0127;-1.7986;-1.5183;2.562
21.954000;-0.7809;-1.4471;-1.9774;2.572
21.957000;-0.5168;-1.1050;-2.4403;2.728
21.958000;-0.2666;-0.8405;-2.7318;2.871
21.959000;-0.0239;-0.5725;-2.7241;2.784
21.960000;0.1874;-0.4035;-2.4537;2.494
21.971000;0.3239;-0.1761;-2.3068;2.336
21.981000;0.3971;0.1286;-2.0504;2.092
21.991000;0.3547;0.3855;-1.7926;1.868
22.001000;0.3075;0.6251;-1.6674;1.807
22.012000;0.1930;0.7700;-1.6590;1.839
22.083000;0.0984;0.9385;-1.5458;1.811
22.086000;0.1045;1.1804;-1.2267;1.706
22.088000;0.1838;1.3332;-0.7128;1.523
22.089000;0.2067;1.3831;-0.1527;1.407
22.091000;0.1070;1.3308;0.5030;1.427
22.092000;0.0282;1.2712;1.1255;1.698
22.094000;0.1227;1.3338;1.4856;2.000
22.095000;0.2235;1.3917;1.6488;2.169
22.101000;0.4371;1.4316;1.8226;2.358
22.111000;0.5932;1.3938;2.2744;2.733
22.157000;0.6225;1.3799;2.9635;3.328
22.160000;0.5654;1.4673;3.5890;3.918
22.161000;0.5549;1.6038;3.8852;4.240
22.163000;0.7400;1.5219;3.5630;3.944
22.164000;1.0397;1.1502;3.0940;3.461
22.171000;1.1785;0.6287;2.9940;3.278
22.180000;1.1460;0.0403;3.0325;3.242
22.191000;0.4984;-1.2209;3.2922;3.546
22.201000;0.0982;-1.8756;3.6930;4.143
22.212000;-0.0240;-2.3799;4.0247;4.676
22.280000;0.2312;-2.5505;4.1076;4.841
22.282000;0.7315;-2.3148;3.8080;4.516
22.283000;1.2153;-1.8067;2.8250;3.567
22.285000;1.5094;-1.2095;1.4130;2.395
22.287000;1.5519;-0.7351;-0.0248;1.717
22.288000;1.5859;-0.4248;-1.3815;2.146
22.289000;1.5866;-0.2679;-2.5571;3.021
22.294000;1.3770;-0.2399;-3.1515;3.448
22.301000;0.9671;-0.3106;-3.1123;3.274
22.311000;0.5180;-0.3897;-2.6455;2.724
22.326000;0.2577;-0.3437;-2.0270;2.072
22.331000;0.2161;-0.1960;-1.3792;1.410
22.376000;0.2852;0.0419;-0.9481;0.991
22.378000;0.2725;0.2744;-0.9039;0.983
22.379000;0.1695;0.4837;-1.0897;1.204
22.380000;0.0634;0.6728;-1.3283;1.490
22.381000;0.0040;0.7729;-1.6745;1.844
22.391000;-0.0474;0.7684;-2.0790;2.217
22.401000;-0.1947;0.6774;-2.3008;2.406
22.412000;-0.3272;0.5254;-2.2736;2.356
22.457000;-0.3512;0.3946;-2.0954;2.161
22.459000;-0.2515;0.4381;-1.8383;1.906
22.460000;-0.0818;0.5657;-1.4907;1.597
22.462000;0.0499;0.6676;-1.2320;1.402
22.463000;0.0541;0.7972;-1.2703;1.501
22.472000;-0.1040;0.8642;-1.6013;1.823
22.480000;-0.3593;0.8283;-1.9112;2.114
22.491000;-0.5723;0.6730;-2.0196;2.204
22.501000;-0.7787;0.4896;-1.8383;2.056
22.510000;-1.0308;0.3354;-1.2308;1.640
22.526000;-1.2187;0.3852;-0.3506;1.325
22.530000;-1.0592;0.5804;-0.1544;1.218
22.591000;-0.8102;0.7759;-0.1330;1.130
22.594000;-0.6182;0.8644;-0.0042;1.063
22.594000;-0.6001;0.8138;0.4490;1.106
22.595000;-0.6567;0.7515;0.9218;1.359
22.596000;-0.7237;0.7180;1.3708;1.708
22.596000;-0.9646;0.6356;2.1032;2.400
22.601000;-1.1241;0.7142;2.4668;2.803
22.613000;-0.9662;1.0704;2.1305;2.573
22.627000;-0.2969;1.5567;1.5947;2.248
22.631000;0.5286;1.8823;1.4201;2.416
22.673000;1.0549;2.1023;1.6058;2.848
22.675000;1.2397;2.1052;1.8892;3.088
22.676000;1.3206;1.6617;2.2867;3.120
22.677000;1.2059;0.7143;2.8092;3.139
22.680000;0.6197;-0.3458;3.5267;3.597
22.690000;-0.3082;-1.2499;4.2976;4.486
22.700000;-1.1497;-1.7779;4.5725;5.039
22.710000;-1.6964;-1.9181;4.3591;5.056
22.725000;-1.7432;-1.5541;3.2002;3.962
22.730000;-1.5084;-0.8411;1.4359;2.246
22.783000;-1.3109;-0.1154;-0.2890;1.347
22.784000;-1.1418;0.4473;-1.4247;1.880
22.785000;-0.9035;0.8609;-2.4042;2.709
22.800000;-0.6584;0.9890;-3.2057;3.419
22.803000;-0.4146;0.8210;-3.5913;3.707
22.804000;-0.3284;0.3685;-3.3064;3.343
22.805000;-0.3967;-0.3330;-2.5247;2.577
22.810000;-0.6679;-1.0284;-1.6853;2.084
22.827000;-1.4593;-2.0064;-0.3742;2.509
22.831000;-1.4518;-1.9610;-0.3975;2.472
22.875000;-1.6993;-2.2900;-0.1436;2.855
22.877000;-1.3477;-2.1644;-0.7154;2.648
22.880000;-0.8808;-1.7141;-1.3440;2.349
22.882000;-0.4147;-1.2678;-1.9370;2.352
22.884000;-0.0801;-0.8425;-2.4569;2.599
22.892000;0.0955;-0.5768;-2.7291;2.791
22.900000;0.1851;-0.4718;-2.7592;2.805
22.910000;0.2911;-0.3068;-2.8180;2.850
22.925000;0.4095;0.0075;-2.8223;2.852
22.930000;0.5516;0.3162;-2.6961;2.770
22.986000;0.7280;0.5479;-2.3599;2.530
22.988000;0.8532;0.7201;-2.1511;2.424
22.989000;0.7454;0.8898;-1.8990;2.226
22.990000;0.3919;0.9873;-1.5793;1.903
22.992000;0.0321;0.9532;-1.1651;1.506
22.993000;-0.2286;0.8015;-0.5850;1.018
23.000000;-0.3130;0.7115;0.0147;0.777
23.010000;-0.2531;0.7240;0.4849;0.907
23.026000;-0.0809;0.8310;0.9028;1.230
23.031000;0.1851;0.8659;1.3880;1.646
23.090000;0.4928;0.8162;1.9129;2.137
23.091000;0.6612;0.7315;2.5475;2.732
23.092000;0.6003;0.7192;3.2728;3.404
23.093000;0.3795;0.8110;4.0793;4.176
23.095000;0.3520;1.1000;4.4230;4.571
23.096000;0.6122;1.4999;4.1623;4.466
23.101000;1.2359;1.7620;3.5256;4.131
23.111000;1.9230;1.7806;2.8561;3.876
23.128000;2.2557;1.6885;2.5964;3.832
23.132000;2.0746;1.4210;2.4732;3.527
23.195000;1.5606;0.8037;2.3993;2.973
23.196000;1.0038;0.0591;2.5310;2.723
23.198000;0.6665;-0.6489;2.5827;2.745
23.199000;0.5732;-1.2009;2.5138;2.844
23.200000;0.5466;-1.8416;2.0111;2.781
23.201000;0.4352;-1.8864;1.6307;2.531
23.202000;0.3806;-1.7397;0.9844;2.035
23.211000;0.3134;-1.4388;0.0152;1.473
23.221000;0.1456;-1.2241;-1.1661;1.697
23.232000;-0.0168;-1.0841;-2.3099;2.552
23.278000;-0.2178;-1.0338;-3.0592;3.237
23.280000;-0.4545;-1.0771;-3.3533;3.551
23.282000;-0.6201;-1.0803;-3.0714;3.314
23.284000;-0.6160;-0.9873;-2.3612;2.632
23.285000;-0.5017;-0.8523;-1.4016;1.715
23.291000;-0.4447;-0.6730;-0.4921;0.945
23.300000;-0.5071;-0.5381;0.3699;0.827
23.312000;-0.5275;-0.3789;0.9194;1.126
23.328000;-0.4803;-0.1170;0.7860;0.929
23.332000;-0.4718;0.1239;0.1459;0.509
23.386000;-0.6035;0.3306;-0.8954;1.129
23.388000;-0.7817;0.4729;-1.8360;2.051
23.389000;-0.8265;0.5174;-2.3274;2.523
23.390000;-0.6961;0.5416;-2.3591;2.519
23.391000;-0.4157;0.6004;-2.1235;2.246
23.392000;-0.1261;0.7219;-1.8200;1.962
23.401000;-0.0109;0.8232;-1.5471;1.753
23.412000;-0.0680;0.8086;-1.4467;1.659
23.433000;-0.1552;0.7285;-1.5084;1.682
23.436000;-0.2442;0.6528;-1.5016;1.655
23.526000;-0.3782;0.5327;-1.2870;1.443
23.528000;-0.5246;0.4969;-0.8118;1.087
23.529000;-0.6703;0.5213;-0.1602;0.864
23.529000;-0.6290;0.5273;0.4711;0.946
23.531000;-0.4533;0.5103;0.5321;0.865
23.532000;-0.3182;0.4846;0.1320;0.595
23.533000;-0.2540;0.3311;-0.0854;0.426
23.534000;-0.3116;-0.1061;1.1157;1.163
23.535000;-0.4425;-0.1775;1.8658;1.926
23.536000;-0.6474;-0.1338;2.4413;2.529
23.541000;-0.8139;0.2197;2.1835;2.341
23.551000;-0.7259;0.8181;1.0669;1.528
23.562000;-0.2773;1.2893;0.4339;1.388
23.571000;0.5557;1.8451;0.1577;1.933
23.618000;1.3145;2.3547;0.1255;2.700
23.620000;1.8918;2.4549;0.5595;3.149
23.622000;2.2464;1.7643;1.8228;3.388
23.623000;2.1796;0.6403;3.4505;4.131
23.624000;1.6176;-0.3839;4.9109;5.185
23.630000;0.7701;-1.0707;5.7789;5.928
23.644000;0.0719;-1.3791;5.7952;5.958
23.650000;-0.2210;-1.3285;4.3471;4.551
23.692000;-0.2076;-0.8856;2.2267;2.405
23.694000;-0.1940;-0.2344;0.3333;0.451
23.695000;-0.2207;0.2361;-1.0465;1.095
23.696000;-0.2056;0.4254;-1.9764;2.032
23.701000;-0.1599;0.3398;-2.5768;2.604
23.711000;-0.0921;-0.0226;-2.6004;2.602
23.721000;0.0099;-0.5906;-2.0537;2.137
23.732000;0.0947;-1.1411;-1.3756;1.790
23.779000;0.0505;-1.4765;-0.8041;1.682
23.781000;-0.1897;-1.7191;-0.3404;1.763
23.782000;-0.4930;-1.8503;-0.1909;1.924
23.784000;-0.7916;-1.9625;-0.1920;2.125
23.785000;-0.9161;-1.9555;-0.4648;2.209
23.790000;-0.8838;-1.8653;-0.8433;2.230
23.800000;-0.6671;-1.6611;-1.2278;2.171
23.811000;-0.3396;-1.3206;-1.6942;2.175
23.828000;-0.0294;-0.9921;-2.0989;2.322
23.832000;0.1854;-0.7721;-2.3757;2.505
23.898000;0.2803;-0.6293;-2.4886;2.582
23.901000;0.3879;-0.1520;-2.4390;2.474
23.904000;0.4798;0.0964;-2.3603;2.411
23.906000;0.6015;0.3152;-2.3970;2.491
23.908000;0.6741;0.5211;-2.5839;2.721
23.911000;0.6146;0.6890;-2.6595;2.815
23.912000;0.4408;0.7340;-2.5580;2.698
23.913000;0.2138;0.7001;-2.1867;2.306
23.921000;-0.0772;0.5997;-1.3541;1.483
23.930000;-0.3282;0.4827;-0.2989;0.656
23.982000;-0.5308;0.5635;0.4916;0.917
23.984000;-0.6626;0.7210;1.0121;1.408
23.985000;-0.6119;0.9024;1.2701;1.674
23.986000;-0.3778;1.0411;1.3596;1.754
23.987000;-0.1539;1.0450;1.5859;1.905
23.995000;-0.0275;1.0435;2.1310;2.373
24.001000;0.0178;1.0443;3.0053;3.182
24.011000;-0.0638;1.0120;4.0942;4.218
24.021000;-0.2693;1.0719;4.9523;5.074
24.030000;-0.2541;1.2310;4.8063;4.968
24.091000;0.1700;1.5884;3.9216;4.234
24.093000;0.8853;1.8394;3.4794;4.034
24.095000;1.6067;1.8880;3.6615;4.422
24.096000;1.9845;1.8549;3.7084;4.597
24.098000;1.8999;1.8374;3.2279;4.172
24.099000;1.5457;1.3883;2.5278;3.272
24.100000;1.0477;0.4515;1.9167;2.231
24.111000;0.5241;-0.5264;1.4491;1.628
24.121000;0.0713;-1.3868;1.2037;1.838
24.131000;-0.2101;-1.9445;1.1966;2.293
24.209000;-0.2146;-2.1302;1.3031;2.506
24.213000;-0.1042;-1.9418;1.2099;2.290
24.215000;0.1213;-1.4766;0.5819;1.592
24.216000;0.7600;-0.6354;-1.7548;2.015
24.218000;1.0390;-0.4682;-2.5764;2.817
24.219000;1.1069;-0.3899;-3.0365;3.255
24.220000;0.9858;-0.3440;-3.0514;3.225
24.222000;0.8312;-0.3459;-2.6298;2.780
24.224000;0.6804;-0.3976;-1.8771;2.036
24.230000;0.5370;-0.5403;-1.0539;1.300
24.247000;0.3653;-0.6733;-0.5093;0.920
24.252000;0.2061;-0.6287;-0.5402;0.854
24.318000;0.0810;-0.3916;-1.0335;1.108
24.319000;0.0461;-0.0884;-1.8161;1.819
24.324000;0.0600;0.1827;-2.5625;2.570
24.325000;0.0850;0.3764;-3.0676;3.092
24.326000;0.1394;0.4477;-3.3879;3.420
24.327000;0.1439;0.4495;-3.4308;3.463
24.328000;0.0925;0.3882;-3.2464;3.271
24.331000;0.0380;0.3449;-2.8745;2.895
24.346000;0.0126;0.3805;-2.3995;2.430
24.351000;0.0283;0.4227;-1.7714;1.821
24.398000;0.0007;0.4714;-1.0848;1.183
24.400000;-0.0620;0.5905;-0.6746;0.899
24.402000;-0.1814;0.7475;-0.3340;0.839
24.403000;-0.4133;0.8547;-0.0068;0.949
24.404000;-0.8050;0.8452;0.1443;1.176
24.411000;-1.2079;0.7829;0.0794;1.442
24.421000;-1.3998;0.6533;-0.1119;1.549
24.432000;-1.3726;0.4228;-0.0079;1.436
24.482000;-1.3340;0.1903;0.6783;1.509
24.484000;-1.3875;0.1067;1.8045;2.279
24.486000;-1.3806;0.1770;2.8120;3.138
24.486000;-1.3794;0.4798;3.6457;3.927
24.488000;-1.3039;0.9714;3.8421;4.172
24.493000;-0.8670;1.5245;3.0193;3.492
24.501000;0.0494;2.0425;2.0315;2.881
24.511000;1.7789;3.1808;1.4454;3.921
24.521000;2.0354;3.1481;2.0423;4.269
24.534000;2.2791;2.3863;2.9919;4.454
24.606000;2.3493;1.1994;4.5584;5.267
24.609000;1.9487;-0.0663;5.9120;6.225
24.612000;0.9698;-1.1968;6.8751;7.046
24.614000;-0.1018;-1.8738;6.4383;6.706
24.616000;-0.8039;-2.0161;4.7639;5.235
24.617000;-0.9976;-1.6353;2.3170;3.006
24.617000;-1.0052;-1.0647;-0.0417;1.465
24.618000;-1.1476;-0.5484;-1.7326;2.149
24.620000;-1.3039;-0.1809;-2.9677;3.247
24.631000;-1.2957;0.0021;-3.8246;4.038
24.647000;-1.0376;-0.0710;-4.1806;4.308
24.651000;-0.6591;-0.3179;-3.7422;3.813
24.698000;-0.2877;-0.7533;-2.8668;2.978
24.701000;-0.0962;-1.0975;-2.0273;2.307
24.702000;-0.1928;-1.2740;-1.2752;1.813
24.704000;-0.4427;-1.5257;-0.6989;1.736
24.706000;-0.7150;-1.7718;-0.5741;1.995
24.712000;-0.9171;-1.9369;-0.7550;2.272
24.720000;-1.0094;-2.0189;-1.1681;2.542
24.731000;-0.9643;-1.9854;-1.6900;2.780
24.779000;-0.8138;-1.8005;-2.0995;2.883
24.782000;-0.6169;-1.5252;-2.2767;2.809
24.783000;-0.3959;-1.2154;-2.2390;2.578
24.784000;-0.1458;-0.8507;-2.0923;2.263
24.786000;0.1447;-0.4569;-1.9572;2.015
24.791000;0.4103;-0.0851;-1.8188;1.866
24.801000;0.5931;0.1682;-1.5368;1.656
24.811000;0.7647;0.4142;-1.2301;1.506
24.821000;0.8812;0.5561;-0.9847;1.434
24.834000;0.8203;0.6562;-0.6066;1.213
24.919000;0.4508;0.9717;-0.4892;1.178
24.921000;0.2682;1.1319;-0.3489;1.214
24.922000;0.0138;1.2846;0.0496;1.286
24.923000;-0.1299;1.3935;0.5636;1.509
24.924000;-0.0847;1.4551;0.7863;1.656
24.926000;0.0655;1.5032;0.8177;1.712
24.927000;0.1081;1.5203;0.8670;1.753
24.928000;0.0532;1.4658;1.2358;1.918
24.928000;-0.0055;1.3931;1.9027;2.358
24.932000;-0.0908;1.4466;2.7849;3.140
24.947000;-0.0589;1.6522;3.3445;3.731
24.951000;0.2850;1.8635;3.2490;3.756
24.998000;0.9372;1.9485;2.9416;3.651
25.000000;1.5297;1.8093;2.9608;3.792
25.002000;1.7131;1.5304;3.1907;3.932
25.003000;1.4496;1.0665;3.2478;3.713
25.005000;0.8521;0.2666;3.1859;3.309
25.011000;0.2263;-0.6090;3.0008;3.070
25.020000;-0.2674;-1.4318;2.6696;3.041
25.032000;-0.5594;-2.1279;2.2282;3.131
25.079000;-0.6761;-2.5010;1.6733;3.084
25.081000;-0.6265;-2.4748;1.3721;2.898
25.082000;-0.4099;-2.1637;1.1665;2.492
25.084000;-0.1454;-1.7200;0.6050;1.829
25.085000;0.1453;-1.1125;-0.5543;1.251
25.094000;0.4277;-0.6005;-1.8734;2.013
25.100000;0.7288;-0.3486;-2.8655;2.977
25.111000;0.9028;-0.2836;-3.5887;3.711
25.120000;0.8084;-0.3042;-4.0045;4.097
25.130000;0.4339;-0.3631;-3.5905;3.635
25.193000;0.0674;-0.5064;-2.3924;2.446
25.195000;-0.0163;-0.6079;-1.0715;1.232
25.196000;0.0198;-0.5858;-0.2377;0.633
25.197000;-0.0043;-0.1481;-0.1339;0.200
25.197000;-0.0953;0.0619;-0.7653;0.774
25.199000;-0.2330;0.2112;-1.6638;1.693
25.200000;-0.4135;0.3711;-2.6075;2.666
25.211000;-0.5181;0.5053;-3.0279;3.113
25.220000;-0.3718;0.6105;-2.8606;2.949
25.231000;-0.0228;0.6573;-2.5508;2.634
25.285000;0.1901;0.7245;-1.9761;2.113
25.287000;0.2327;0.7327;-1.0479;1.300
25.288000;0.3615;0.6376;-0.3324;0.805
25.289000;0.4060;0.5593;-0.2480;0.734
25.291000;0.2642;0.5826;-0.5586;0.849
25.293000;-0.0766;0.6952;-0.9083;1.146
25.301000;-0.6479;0.8538;-1.1384;1.564
25.312000;-1.3149;0.8525;-1.0903;1.909
25.320000;-1.7435;0.6607;-0.9413;2.089
25.331000;-1.8313;0.3878;-0.7421;2.014
25.395000;-1.6798;0.1415;-0.1718;1.694
25.397000;-1.3696;0.0255;0.6112;1.500
25.398000;-1.0977;0.1210;1.2517;1.669
25.398000;-0.9994;0.6166;1.9862;2.307
25.399000;-0.8470;1.2207;2.5003;2.908
25.400000;-0.1668;1.7395;2.3788;2.952
25.401000;0.9106;2.2036;1.9237;3.064
25.411000;1.8991;2.7694;1.8821;3.849
25.420000;2.3349;2.9455;2.1090;4.310
25.431000;2.3292;2.5821;2.5966;4.340
25.479000;2.1434;1.7380;3.4154;4.391
25.481000;1.8010;0.6312;4.8086;5.173
25.483000;1.1371;-0.4543;5.9562;6.081
25.484000;0.2282;-1.2080;6.5038;6.619
25.485000;-0.5502;-1.5317;5.8070;6.031
25.492000;-0.7901;-1.4698;4.0412;4.372
25.500000;-0.7476;-1.0364;-0.0726;1.280
25.511000;-0.7359;-0.0815;-1.3613;1.550
25.521000;-0.6574;0.1517;-2.5038;2.593
25.530000;-0.4267;0.1773;-3.2461;3.279
25.596000;-0.0563;-0.1208;-3.2737;3.276
25.599000;0.2580;-0.6730;-2.4448;2.549
25.603000;0.2559;-1.3533;-1.3216;1.909
25.604000;-0.0692;-1.7946;-0.4402;1.849
25.606000;-0.5130;-2.0203;-0.0554;2.085
25.610000;-0.8932;-2.1662;-0.1557;2.348
25.614000;-1.0421;-2.1540;-0.6903;2.490
25.616000;-0.8227;-1.9487;-1.4423;2.560
25.621000;-0.3649;-1.6113;-2.3195;2.848
25.631000;0.1128;-1.1800;-3.0240;3.248
25.684000;0.4678;-0.7885;-3.3591;3.482
25.686000;0.6421;-0.4965;-3.3071;3.405
25.688000;0.6989;-0.2499;-3.0118;3.102
25.690000;0.6918;-0.1094;-2.3263;2.429
25.693000;0.6926;-0.0452;-1.6599;1.799
25.694000;0.7187;0.0689;-1.1814;1.385
25.701000;0.8606;0.3322;-0.7892;1.214
25.711000;1.0053;0.7118;-0.6897;1.412
25.720000;1.0001;0.9523;-0.5536;1.488
25.730000;0.8568;1.0940;-0.3942;1.444
25.795000;0.6089;1.1973;-0.3836;1.397
25.796000;0.3360;1.2546;-0.5031;1.393
25.797000;0.1731;1.2867;-0.6609;1.457
25.798000;0.2238;1.1867;-0.5367;1.322
25.798000;0.2543;0.8805;0.2761;0.957
25.799000;0.1400;0.4441;1.8021;1.861
25.801000;-0.0135;0.2386;3.4439;3.452
25.810000;-0.0445;0.4006;4.7235;4.741
25.820000;0.0151;0.8091;5.4794;5.539
25.832000;0.5860;1.3921;4.1435;4.410
25.884000;2.8990;1.9427;3.3243;4.820
25.886000;2.9665;1.5618;3.1749;4.617
25.888000;2.0344;0.6707;3.0656;3.740
25.890000;0.7874;-0.3873;2.7550;2.891
25.892000;-0.2098;-1.5022;2.2308;2.698
25.893000;-0.9307;-2.7580;1.6220;3.332
25.901000;-1.4987;-3.7725;1.1722;4.225
25.912000;-1.8466;-4.1951;1.3838;4.788
25.920000;-1.7242;-4.0172;1.8296;4.739
25.930000;-1.1305;-3.3457;2.1438;4.131
25.940000;-0.2935;-2.3669;1.7051;2.932
25.995000;0.5161;-1.2834;0.2904;1.413
25.997000;1.0098;-0.5027;-1.2103;1.654
25.997000;1.3219;-0.0690;-2.4655;2.798
25.998000;1.4226;0.1571;-3.1613;3.470
26.000000;1.2360;0.1746;-3.2131;3.447
26.001000;0.9042;0.0549;-2.7593;2.904
26.010000;0.5686;-0.1072;-1.7382;1.832
26.020000;0.2592;-0.2511;-0.7089;0.795
26.031000;0.0846;-0.2573;-0.0818;0.283
26.041000;0.0121;-0.0560;0.0797;0.098
26.086000;0.0046;0.2539;-0.0830;0.267
26.088000;-0.0675;0.5090;-0.5985;0.789
26.088000;-0.2204;0.6396;-1.3402;1.501
26.093000;-0.4255;0.6866;-2.0429;2.197
26.096000;-0.6610;0.6291;-2.3733;2.543
26.101000;-0.8217;0.5017;-2.2205;2.420
26.112000;-0.8119;0.4041;-1.8099;2.024
26.120000;-0.5739;0.4236;-1.5672;1.722
26.131000;-0.2920;0.5563;-1.3575;1.496
26.147000;-0.0920;0.7125;-1.1204;1.331
26.150000;-0.0415;0.8144;-0.6614;1.050
26.211000;-0.4889;0.8274;-0.0298;0.962
26.214000;-0.9565;0.6260;0.1232;1.150
26.215000;-1.3650;0.4291;0.1243;1.436
26.217000;-1.4942;0.2581;0.0320;1.517
26.218000;-1.2970;0.0923;0.0968;1.304
26.220000;-1.1264;-0.1366;0.6126;1.289
26.222000;-1.1893;-0.3802;1.3954;1.872
26.230000;-1.4641;-0.3681;2.0472;2.544
26.240000;-1.5557;-0.0359;2.2907;2.769
26.251000;-1.0177;0.5509;1.9796;2.293
26.304000;0.0004;1.2254;1.2541;1.753
26.306000;1.0421;1.8467;0.6800;2.227
26.307000;2.0038;2.2961;0.5423;3.095
26.309000;2.6416;2.2910;0.9617;3.627
26.311000;2.9450;1.7727;2.1887;4.075
26.314000;2.7180;0.7454;4.0335;4.921
26.331000;0.8675;-1.5523;7.1400;7.358
26.383000;-0.3758;-2.2687;6.9008;7.274
26.386000;-1.2222;-2.4034;5.2299;5.884
26.387000;-1.4818;-2.0638;2.6470;3.669
26.389000;-1.4746;-1.3511;0.1436;2.005
26.390000;-1.4635;-0.5352;-1.8859;2.446
26.392000;-1.3801;0.2547;-3.4385;3.714
26.400000;-1.1623;0.7882;-4.5015;4.715
26.413000;-0.8045;0.8852;-4.7708;4.919
26.421000;-0.4565;0.4972;-3.9420;3.999
26.430000;-0.3436;-0.1123;-2.2392;2.268
26.451000;-0.5786;-0.6960;-0.8641;1.251
26.453000;-0.9626;-1.2187;0.1019;1.556
26.526000;-1.2456;-1.5234;0.5260;2.037
26.528000;-1.3781;-1.7559;0.5744;2.305
26.529000;-1.3425;-1.7405;0.1844;2.206
26.531000;-1.1859;-1.5865;-0.4761;2.037
26.532000;-0.8420;-1.1127;-1.8128;2.288
26.533000;-0.7732;-0.9028;-2.3088;2.597
26.534000;-0.7493;-0.7448;-2.4588;2.676
26.535000;-0.7270;-0.6597;-2.3903;2.584
26.541000;-0.6213;-0.6062;-2.0551;2.231
26.551000;-0.4097;-0.5558;-1.6233;1.764
26.565000;-0.0155;-0.4722;-1.0645;1.165
26.570000;0.4738;-0.3146;-0.5469;0.789
26.615000;0.8254;-0.0701;-0.2672;0.870
26.616000;0.8943;0.2240;-0.0739;0.925
26.617000;0.8037;0.5349;0.0960;0.970
26.618000;0.6745;0.7799;0.1834;1.047
26.620000;0.5930;0.8944;0.1091;1.079
26.630000;0.6042;0.8490;0.0743;1.045
26.640000;0.7265;0.6855;0.4282;1.087
26.651000;0.8785;0.4142;1.0932;1.462
26.697000;0.9189;0.1515;1.7792;2.008
26.700000;0.7912;-0.1516;2.5153;2.641
26.701000;0.6782;-0.3241;3.3315;3.415
26.702000;0.5933;-0.2171;3.9118;3.963
26.704000;0.7679;0.2783;3.7317;3.820
26.712000;1.2977;0.9021;2.8831;3.288
26.720000;1.9746;1.2951;1.8340;2.990
26.731000;2.2391;1.4369;1.0553;2.862
26.741000;1.8305;1.3923;0.5696;2.369
26.753000;1.0505;1.0382;-0.1369;1.483
26.806000;0.2175;0.2254;-0.3234;0.450
26.807000;-0.3205;-0.7463;0.0886;0.817
26.809000;-0.4637;-1.5957;0.5924;1.764
26.810000;-0.3887;-2.2392;1.0470;2.502
26.812000;-0.1082;-2.4033;1.4862;2.828
26.813000;0.3481;-2.1254;1.8316;2.827
26.820000;0.9012;-1.5034;1.8749;2.567
26.830000;1.4934;-0.4243;0.4809;1.625
26.841000;1.2962;-0.2221;-0.3070;1.350
26.851000;0.9205;-0.2496;-1.0597;1.426
26.906000;0.5406;-0.3532;-1.5164;1.648
26.912000;0.1545;-0.4563;-1.6827;1.750
26.914000;-0.1199;-0.4488;-1.5797;1.647
26.915000;-0.2420;-0.3376;-1.1020;1.178
26.916000;-0.2360;-0.2812;-0.6338;0.732
26.918000;-0.1751;-0.1986;-0.2542;0.367
26.920000;-0.1693;-0.1423;-0.1163;0.250
26.931000;-0.2878;-0.1465;-0.1807;0.370
26.940000;-0.5429;-0.1258;-0.3674;0.668
26.952000;-0.7769;-0.1215;-0.6722;1.034
27.022000;-0.9444;-0.1702;-0.9812;1.372
27.024000;-1.1312;-0.2639;-1.2140;1.680
27.025000;-1.3310;-0.4374;-1.2902;1.905
27.026000;-1.4159;-0.6095;-1.2186;1.965
27.028000;-1.4333;-0.7358;-0.9626;1.877
27.029000;-1.3803;-0.7982;-0.6014;1.704
27.031000;-1.2918;-0.6745;-0.4187;1.516
27.032000;-1.1009;-0.3510;-0.4783;1.251
27.041000;-0.8859;0.0124;-0.6306;1.087
27.051000;-0.7272;0.3307;-0.6222;1.013
27.099000;-0.6423;0.6626;-0.5624;1.081
27.101000;-0.5641;0.9503;-0.6326;1.273
27.102000;-0.4162;1.0808;-0.7934;1.404
27.103000;-0.2834;0.9856;-0.8106;1.307
27.104000;-0.3331;0.6135;-0.4937;0.855
27.111000;-0.5522;0.2134;0.0427;0.594
27.121000;-0.8468;-0.1434;0.7642;1.150
27.131000;-1.1516;-0.4095;1.9564;2.307
27.140000;-1.3060;-0.4904;2.9108;3.228
27.150000;-1.1009;-0.4242;2.8655;3.099
27.225000;0.5145;0.2975;0.7047;0.922
27.226000;1.4263;0.7254;-0.0408;1.601
27.227000;2.1089;1.0555;-0.4771;2.406
27.228000;2.5619;0.9940;-0.1395;2.752
27.229000;2.7142;0.3670;1.3813;3.067
27.230000;2.5740;-0.5255;3.5938;4.452
27.232000;2.1470;-1.4741;5.1930;5.810
27.234000;1.4284;-2.1974;5.6554;6.233
27.241000;0.5919;-2.5827;5.3866;6.003
27.251000;0.0135;-2.6331;4.2334;4.985
27.266000;-0.2686;-2.4570;2.5512;3.552
27.271000;-0.3822;-1.9465;0.9448;2.197
27.317000;-0.5323;-1.5487;-0.1696;1.646
27.319000;-0.6155;-1.2500;-0.9005;1.659
27.320000;-0.5777;-1.1809;-1.2918;1.843
27.321000;-0.4485;-1.3065;-1.2713;1.877
27.322000;-0.3573;-1.5971;-0.6607;1.765
27.331000;-0.4587;-1.9413;0.2530;2.011
27.340000;-0.7109;-2.3488;1.0986;2.689
27.353000;-1.0095;-2.5945;2.0509;3.458
27.400000;-1.0723;-2.5232;2.6415;3.807
27.403000;-0.8874;-2.3274;3.0522;3.940
27.404000;-0.4834;-1.8960;2.8522;3.459
27.405000;-0.0362;-1.2784;2.0158;2.387
27.406000;0.2784;-0.6338;0.8685;1.111
27.412000;0.4735;-0.0695;-0.0315;0.480
27.421000;0.5793;0.2565;-0.7267;0.964
27.431000;0.6330;0.4410;-1.2633;1.480
27.440000;0.6079;0.4487;-1.5765;1.748
27.450000;0.5399;0.2777;-1.5339;1.650
27.516000;0.3887;-0.0487;-0.9629;1.040
27.517000;0.1834;-0.3797;0.1125;0.436
27.518000;0.0969;-0.5531;1.0057;1.152
27.519000;0.2061;-0.4844;1.6078;1.692
27.521000;0.2742;-0.3524;1.3845;1.455
27.522000;0.3688;-0.1867;1.0055;1.087
27.522000;0.4312;-0.0423;0.4885;0.653
27.530000;0.4387;0.1475;-0.2131;0.510
27.540000;0.4494;0.2723;-0.5088;0.731
27.552000;0.4422;0.2406;-0.1794;0.534
27.602000;0.4587;0.1723;0.3720;0.615
27.604000;0.3336;0.0813;0.5883;0.681
27.605000;0.0095;-0.1244;0.5648;0.578
27.605000;-0.5478;-0.4895;0.6402;0.974
27.606000;-1.1644;-0.8743;0.7412;1.634
27.613000;-1.4477;-0.9951;1.0293;2.036
27.620000;-1.3474;-0.8347;1.2007;1.988
27.631000;-0.9024;-0.4607;1.0935;1.491
27.641000;-0.1944;0.2100;0.6190;0.682
27.653000;0.4989;0.9034;-0.0914;1.036
27.719000;0.9397;1.5340;-0.6384;1.909
27.723000;1.1403;1.9501;-0.9551;2.453
27.725000;1.1594;2.1056;-1.2532;2.711
27.728000;1.0612;1.9601;-1.4291;2.648
27.730000;0.9144;1.5845;-1.6256;2.447
27.732000;0.7047;1.0864;-1.7580;2.183
27.734000;0.4295;0.6186;-1.7083;1.867
27.736000;0.1219;0.2634;-1.3490;1.380
27.742000;-0.0638;0.0941;-0.6961;0.705
27.751000;-0.0279;0.0771;-0.0764;0.112
27.828000;0.1244;0.1786;0.2940;0.366
27.830000;0.2198;0.2557;0.5661;0.659
27.832000;0.1887;0.2257;0.5727;0.644
27.833000;0.0381;0.1016;0.3119;0.330
27.834000;-0.2293;-0.1007;0.0380;0.253
27.835000;-0.5492;-0.3790;-0.2956;0.730
27.836000;-0.7865;-0.6094;-0.5641;1.144
27.836000;-0.7658;-0.6718;-0.3024;1.063
27.841000;-0.3189;-0.4464;0.0106;0.549
27.851000;0.2587;0.0158;0.3301;0.420
27.868000;0.7613;0.4494;0.5629;1.048
27.931000;1.1729;0.7464;0.7764;1.592
27.933000;1.4383;0.8993;0.9663;1.952
27.933000;1.1557;0.7027;0.6396;1.496
27.934000;0.7106;0.4349;0.1288;0.843
27.936000;0.2226;0.2092;-0.5074;0.592
27.936000;-0.1652;0.0505;-0.9322;0.948
27.941000;-0.3718;0.0253;-1.1134;1.174
27.951000;-0.4785;0.0200;-1.1110;1.210
27.968000;-0.5080;0.1179;-0.9808;1.111
27.971000;-0.4308;0.1743;-0.7406;0.874
28.056000;-0.1868;0.2873;-0.3911;0.520
28.057000;0.1332;0.4246;-0.1446;0.468
28.058000;0.3835;0.5407;0.0242;0.663
28.058000;0.5089;0.5949;0.1191;0.792
28.061000;0.5313;0.5938;0.1253;0.807
28.062000;0.4612;0.5433;0.1343;0.725
28.063000;0.3989;0.5760;0.2050;0.730
28.064000;0.4006;0.6462;0.1732;0.780
28.064000;0.4376;0.7030;0.0416;0.829
28.071000;0.4601;0.7465;-0.0754;0.880
28.083000;0.4643;0.8159;-0.2284;0.966
28.090000;0.4766;0.8971;-0.3727;1.082
28.135000;0.4658;0.9443;-0.3724;1.117
28.137000;0.4697;0.9059;-0.3061;1.065
28.137000;0.4314;0.8133;-0.1816;0.938
28.138000;0.3421;0.7162;-0.0886;0.799
28.141000;0.2168;0.5871;-0.1335;0.640
28.151000;0.0779;0.5195;-0.2291;0.573
28.161000;-0.1552;0.4110;-0.1312;0.458
28.171000;-0.2269;0.3780;-0.0550;0.444
28.220000;-0.2810;0.3742;-0.0690;0.473
28.223000;-0.3515;0.3525;-0.0770;0.504
28.224000;-0.3768;0.3250;-0.0460;0.500
28.225000;-0.3747;0.3465;-0.0143;0.511
28.226000;-0.3411;0.3697;0.0008;0.503
28.232000;-0.2712;0.4120;-0.0165;0.493
28.240000;-0.1562;0.4922;-0.0565;0.519
28.252000;-0.0541;0.5857;-0.1334;0.603
28.261000;0.0566;0.6401;-0.2451;0.688
28.304000;0.0702;0.6098;-0.4307;0.750
28.306000;-0.0064;0.5486;-0.4565;0.714
28.307000;-0.0423;0.4759;-0.3942;0.619
28.308000;0.0062;0.4116;-0.2323;0.473
28.316000;0.0381;0.3792;-0.0722;0.388
28.320000;0.0530;0.3807;-0.0207;0.385
28.332000;0.0477;0.3566;-0.0586;0.364
28.340000;0.1197;0.3563;-0.1283;0.397
28.353000;0.1254;0.3721;-0.2175;0.449
28.361000;0.0760;0.3624;-0.2999;0.476
28.429000;0.0321;0.3461;-0.3055;0.463
28.430000;0.0269;0.3447;-0.2394;0.421
28.433000;0.0179;0.3391;-0.1370;0.366
28.434000;-0.0261;0.3260;-0.0655;0.334
28.435000;-0.0744;0.3173;0.0267;0.327
28.436000;-0.0914;0.2757;0.0617;0.297
28.437000;-0.1080;0.2745;0.0173;0.296
28.440000;-0.0768;0.3462;-0.0821;0.364
28.451000;-0.0056;0.4122;-0.1769;0.449
28.461000;-0.0197;0.4068;-0.2236;0.465
28.472000;-0.0832;0.3627;-0.2173;0.431
28.518000;-0.2582;0.2934;-0.1020;0.404
28.520000;-0.2166;0.2909;-0.0159;0.363
28.521000;-0.1637;0.3326;0.0961;0.383
28.522000;-0.1433;0.3885;0.1154;0.430
28.523000;-0.0898;0.4080;0.1069;0.431
28.531000;-0.0954;0.3804;0.0968;0.404
28.540000;-0.1765;0.3310;0.1270;0.396
28.552000;-0.2374;0.2449;0.2653;0.432
28.562000;-0.2534;0.1652;0.2778;0.411
28.592000;-0.2698;0.0924;0.2911;0.407
28.594000;-0.3083;0.0893;0.3582;0.481
28.595000;-0.2901;0.1677;0.3012;0.451
28.600000;-0.2290;0.2261;0.2189;0.389
28.610000;-0.1740;0.2790;0.1758;0.373
28.620000;-0.1703;0.3157;0.2304;0.426
28.637000;-0.1648;0.3442;0.3215;0.499
28.641000;-0.1494;0.3144;0.3914;0.524
28.686000;-0.1337;0.2931;0.4079;0.520
28.688000;-0.0868;0.2759;0.3733;0.472
28.689000;-0.0849;0.2626;0.3103;0.415
28.689000;-0.0011;0.2394;0.2774;0.366
28.691000;-0.0031;0.1937;0.2205;0.294
28.701000;-0.0357;0.1583;0.1279;0.207
28.710000;-0.0632;0.1187;0.0140;0.135
28.722000;-0.0938;0.1041;-0.0634;0.154
28.735000;-0.1212;0.1209;-0.1104;0.204
28.740000;-0.1168;0.1178;-0.1217;0.206
28.804000;-0.0761;0.1144;-0.0915;0.165
28.806000;-0.0261;0.1083;-0.0323;0.116
28.807000;-0.0226;0.1523;0.0102;0.154
28.808000;-0.0849;0.1373;0.1776;0.240
28.808000;-0.1406;0.0383;0.2757;0.312
28.809000;-0.1860;-0.0664;0.2899;0.351
28.812000;-0.2153;-0.0533;0.1019;0.244
28.821000;-0.2788;-0.0168;0.0753;0.289
28.837000;-0.2251;0.0119;0.0136;0.226
28.841000;-0.1141;0.0993;-0.0950;0.179
28.888000;-0.0108;0.2541;-0.1284;0.285
28.890000;0.0358;0.3754;-0.0858;0.387
28.891000;0.1431;0.4383;-0.0895;0.470
28.892000;0.2144;0.4376;-0.1350;0.506
28.893000;0.2254;0.4120;-0.0387;0.471
28.900000;0.2084;0.3446;0.0432;0.405
28.910000;0.1413;0.2228;0.1058;0.284
28.921000;0.0517;0.1183;0.1574;0.204
28.935000;-0.0238;-0.0053;0.1864;0.188
28.940000;-0.0731;-0.0305;0.1878;0.204
29.013000;-0.0488;0.0105;0.1668;0.174
29.014000;0.0469;0.1161;0.1097;0.167
29.015000;0.1618;0.2715;0.1355;0.344
29.016000;0.2684;0.3785;0.0249;0.465
29.017000;0.3457;0.4620;-0.2027;0.612
29.018000;0.4044;0.5385;-0.2342;0.713
29.018000;0.4534;0.4795;-0.1745;0.683
29.020000;0.4134;0.3499;-0.1202;0.555
29.032000;0.2500;0.2516;-0.0395;0.357
29.041000;0.1416;0.1659;0.0804;0.232
29.053000;0.1344;0.1518;0.1437;0.248
29.061000;0.1849;0.1948;0.2586;0.373
29.104000;0.2269;0.2455;0.3201;0.463
29.105000;0.2043;0.2864;0.3194;0.475
29.106000;0.1736;0.2816;0.2883;0.439
29.108000;0.1830;0.2592;0.1876;0.369
29.110000;0.1447;0.1481;0.0006;0.207
29.121000;0.0441;0.0701;-0.0862;0.120
29.141000;-0.0611;0.0216;-0.1082;0.126
29.144000;-0.0615;0.0022;0.0271;0.067
29.195000;0.0438;0.0718;0.1808;0.199
29.196000;0.1795;0.1580;0.2317;0.333
29.197000;0.2860;0.2606;0.1917;0.432
29.198000;0.3727;0.3429;0.0709;0.511
29.199000;0.3677;0.3998;-0.0977;0.552
29.201000;0.2643;0.3563;-0.2233;0.497
29.210000;0.1215;0.2593;-0.3162;0.427
29.221000;0.0252;0.1762;-0.3388;0.383
29.238000;-0.0707;0.0916;-0.3001;0.322
29.241000;-0.1508;0.0099;-0.1982;0.249
29.296000;-0.2186;-0.0227;-0.1095;0.246
29.298000;-0.2687;-0.0584;-0.0300;0.277
29.298000;-0.2752;-0.0638;-0.0069;0.283
29.299000;-0.2419;-0.0575;0.0199;0.249
29.300000;-0.2074;-0.0371;0.1342;0.250
29.301000;-0.1406;-0.0200;0.2161;0.259
29.311000;-0.0878;0.0267;0.2179;0.236
29.321000;-0.0738;0.0539;0.2056;0.225
29.337000;-0.1171;0.0965;0.2053;0.255
29.340000;-0.1698;0.1068;0.1977;0.282
29.384000;-0.2342;0.0912;0.2043;0.324
29.385000;-0.2766;0.0608;0.2309;0.365
29.386000;-0.2828;0.0376;0.2725;0.395
29.387000;-0.2707;0.0130;0.2597;0.375
29.390000;-0.2580;-0.0017;0.2323;0.347
29.401000;-0.2513;0.0073;0.2135;0.330
29.410000;-0.2656;0.0203;0.1628;0.312
29.420000;-0.2789;0.0162;0.0816;0.291
29.438000;-0.2991;0.0280;0.0050;0.300
29.442000;-0.2702;0.0317;-0.0980;0.289
29.516000;-0.2240;0.0640;-0.2339;0.330
29.518000;-0.1737;0.0837;-0.3085;0.364
29.518000;-0.1068;0.1334;-0.3472;0.387
29.519000;0.0038;0.1719;-0.2198;0.279
29.521000;0.0373;0.2014;-0.1041;0.230
29.521000;0.0469;0.1849;0.1185;0.225
29.522000;0.0455;0.1558;0.3079;0.348
29.524000;0.0079;0.1273;0.4157;0.435
29.533000;-0.0209;0.0791;0.3800;0.389
29.541000;-0.0800;0.0436;0.4690;0.478
29.555000;-0.1091;0.0168;0.4064;0.421
29.561000;-0.1184;0.0274;0.3431;0.364
29.605000;-0.1154;0.0973;0.3004;0.336
29.606000;-0.1137;0.1306;0.2484;0.303
29.607000;-0.1357;0.1133;0.2182;0.281
29.608000;-0.1308;0.1201;0.1819;0.254
29.611000;-0.1742;0.1222;0.1432;0.256
29.620000;-0.2328;0.0947;0.1654;0.301
29.637000;-0.3049;0.0207;0.1994;0.365
29.642000;-0.3207;-0.0399;0.1759;0.368
29.687000;-0.2931;-0.0466;0.1775;0.346
29.688000;-0.2427;-0.0246;0.1947;0.312
29.689000;-0.1889;0.0012;0.2141;0.286
29.690000;-0.1643;0.0436;0.2541;0.306
29.692000;-0.1490;0.0679;0.3036;0.345
29.701000;-0.1482;0.0850;0.2898;0.336
29.710000;-0.1652;0.0813;0.2175;0.285
29.721000;-0.2141;0.0828;0.1276;0.263
29.738000;-0.2485;0.0727;0.0118;0.259
29.741000;-0.2169;0.0391;-0.1562;0.270
29.807000;-0.1859;0.0107;-0.2210;0.289
29.809000;-0.1380;-0.0068;-0.2056;0.248
29.811000;-0.0607;-0.0011;-0.1461;0.158
29.812000;0.0466;0.0662;-0.0703;0.107
29.816000;0.1376;0.1497;-0.0438;0.208
29.816000;0.1984;0.2237;0.0030;0.299
29.817000;0.2273;0.2583;-0.3028;0.458
29.821000;0.1998;0.3150;-0.4664;0.597
29.837000;0.1979;0.3337;-0.5052;0.637
29.841000;0.2117;0.3400;-0.3444;0.528
29.887000;0.2275;0.2994;-0.0231;0.377
29.888000;0.2402;0.2065;0.3453;0.469
29.889000;0.1932;0.0699;0.5979;0.632
29.890000;0.2027;-0.0008;0.7519;0.779
29.891000;0.1961;0.0540;0.8355;0.860
29.902000;0.2282;0.1020;0.5904;0.641
29.910000;0.2482;0.1718;0.1171;0.324
29.921000;0.3763;0.2634;-0.3883;0.601
29.937000;0.5493;0.3314;-0.5780;0.863
29.941000;0.6921;0.3566;-0.7763;1.099
30.006000;0.7203;0.3601;-0.7789;1.120
30.008000;0.6574;0.3769;-0.6443;0.995
30.009000;0.4359;0.2963;-0.5650;0.773
30.010000;0.3265;0.2447;-0.3804;0.558
30.011000;0.2611;0.2213;-0.1414;0.370
30.012000;0.2496;0.2352;0.0551;0.347
30.013000;0.1698;0.2118;0.0811;0.283
30.021000;0.1302;0.2065;0.0464;0.249
30.038000;0.0640;0.2088;0.0511;0.224
30.041000;-0.0068;0.1950;0.2603;0.325
30.087000;0.0285;0.2497;0.5701;0.623
30.088000;0.1146;0.2492;0.7057;0.757
30.089000;0.1380;0.2014;0.8674;0.901
30.090000;0.0677;0.0719;1.0161;1.021
30.091000;-0.0381;-0.0701;0.9824;0.986
30.101000;-0.1540;-0.1763;0.8865;0.917
30.110000;-0.2859;-0.2201;0.7812;0.861
30.121000;-0.3288;-0.2108;0.6073;0.722
30.138000;-0.3142;-0.1964;0.4565;0.588
30.142000;-0.3894;-0.2256;0.0733;0.456
30.219000;-0.4132;-0.2193;-0.1133;0.481
30.221000;-0.3654;-0.2163;-0.2593;0.498
30.222000;-0.3238;-0.2317;-0.3314;0.518
30.223000;-0.3650;-0.2935;-0.3133;0.563
30.224000;-0.4503;-0.3385;-0.1466;0.582
30.224000;-0.5335;-0.3955;0.1328;0.677
30.225000;-0.5836;-0.4317;0.3999;0.829
30.226000;-0.6055;-0.4695;0.5973;0.972
30.233000;-0.6138;-0.4861;0.6836;1.039
30.241000;-0.5785;-0.4734;0.6106;0.965
30.254000;-0.4700;-0.4001;0.4869;0.786
30.261000;-0.3429;-0.2593;0.3574;0.559
30.303000;-0.2211;-0.1105;0.2476;0.350
30.304000;-0.1356;-0.0198;0.2798;0.312
30.305000;-0.0692;-0.0059;0.0945;0.117
30.306000;-0.0606;0.0240;0.0136;0.067
30.310000;-0.0903;0.0286;-0.0480;0.106
30.321000;-0.1332;-0.0006;-0.0239;0.135
30.332000;-0.1748;-0.0662;0.1132;0.219
30.343000;-0.0943;-0.0878;0.2373;0.270
30.394000;-0.0038;-0.0213;0.2116;0.213
30.396000;0.0896;0.1139;0.3154;0.347
30.398000;0.1815;0.1657;0.3752;0.449
30.399000;0.2286;0.1807;0.2804;0.404
30.400000;0.1324;0.1761;0.1341;0.258
30.403000;0.0087;0.1624;-0.0434;0.168
30.411000;-0.0141;0.1802;-0.1894;0.262
30.421000;0.0362;0.2143;-0.3421;0.405
30.438000;0.0897;0.2725;-0.4339;0.520
30.443000;0.1349;0.3018;-0.2077;0.390
30.496000;0.1368;0.2610;0.1123;0.315
30.497000;0.1320;0.1777;0.3674;0.429
30.498000;0.1074;0.1440;0.4280;0.464
30.498000;0.1321;0.1885;0.0275;0.232
30.499000;0.1706;0.1477;-0.0982;0.246
30.500000;0.1957;0.1361;-0.1115;0.263
30.510000;0.2290;0.1922;-0.1772;0.348
30.520000;0.2419;0.2211;-0.1561;0.363
30.531000;0.2212;0.2098;-0.0663;0.312
30.540000;0.1892;0.1530;-0.0117;0.244
30.584000;0.0999;0.1182;-0.0508;0.163
30.586000;-0.0006;0.1087;-0.0887;0.140
30.586000;-0.0395;0.1032;-0.0789;0.136
30.588000;-0.0355;0.0326;-0.0719;0.087
30.591000;-0.0407;-0.0610;0.0665;0.099
30.602000;-0.0590;-0.1292;0.2305;0.271
30.611000;-0.0875;-0.1566;0.3102;0.358
30.621000;-0.1494;-0.1806;0.3450;0.417
30.630000;-0.1738;-0.1577;0.3415;0.414
30.641000;-0.1431;-0.1203;0.2870;0.343
30.692000;-0.1321;-0.0895;0.1661;0.230
30.693000;-0.1113;-0.0530;0.0300;0.127
30.694000;-0.1013;0.0090;-0.1544;0.185
30.695000;-0.1156;0.0041;-0.1636;0.200
30.696000;-0.0646;0.0175;-0.0603;0.090
30.702000;0.0102;0.0403;0.0114;0.043
30.710000;0.0497;0.0654;0.0791;0.114
30.721000;0.0957;0.1419;0.0354;0.175
30.731000;0.1499;0.2451;-0.0808;0.298
30.740000;0.2024;0.3132;-0.2022;0.424
30.784000;0.2352;0.3606;-0.2583;0.502
30.786000;0.2678;0.3795;-0.2444;0.525
30.786000;0.2896;0.3957;-0.2506;0.551
30.788000;0.2551;0.3499;-0.1946;0.475
30.792000;0.1724;0.2636;0.1441;0.346
30.801000;0.1711;0.2596;0.1460;0.344
30.810000;0.1764;0.2065;0.4157;0.497
30.821000;0.1445;0.0819;0.3699;0.405
30.830000;0.1304;0.0806;0.5475;0.569
30.841000;0.2319;0.0755;0.6013;0.649
30.896000;0.3639;0.0797;0.4583;0.591
30.898000;0.3956;0.0955;0.3022;0.507
30.899000;0.3788;0.0959;0.1846;0.432
30.900000;0.3643;0.1094;0.1034;0.394
30.901000;0.2909;0.1159;0.2176;0.381
30.902000;0.1918;0.0139;0.2417;0.309
30.910000;0.0816;-0.0702;0.2903;0.310
30.921000;0.0110;-0.0805;0.2572;0.270
30.931000;-0.0322;-0.0867;0.1028;0.138
30.942000;-0.0498;-0.0929;-0.0337;0.111
30.992000;-0.0082;-0.0472;-0.1787;0.185
30.994000;0.0558;-0.0134;-0.1818;0.191
30.995000;0.1415;0.0537;-0.2300;0.275
30.996000;0.2319;0.1610;-0.1564;0.323
30.997000;0.3116;0.2354;0.0074;0.391
31.004000;0.3542;0.2465;0.0472;0.434
31.010000;0.3218;0.2264;0.0361;0.395
31.022000;0.2321;0.1903;0.0358;0.302
31.031000;0.1908;0.1760;-0.0528;0.265
31.042000;0.1258;0.1280;-0.1055;0.208
31.099000;0.0858;0.0694;-0.1044;0.152
31.101000;0.0413;0.0385;-0.0619;0.084
31.102000;0.0375;0.0433;0.0388;0.069
31.102000;0.0422;0.0504;0.2169;0.227
31.103000;0.0481;0.0514;0.3752;0.382
31.107000;0.0471;0.0350;0.4232;0.427
31.111000;0.0334;-0.0047;0.3527;0.354
31.121000;-0.0090;-0.0160;0.2594;0.260
31.131000;-0.0477;-0.0185;0.2227;0.228
31.141000;-0.0677;0.0078;0.1452;0.160
31.187000;-0.0143;0.0599;-0.0092;0.062
31.189000;0.0126;0.1049;-0.0373;0.112
31.190000;0.0595;0.1140;0.0484;0.137
31.191000;0.0916;0.0993;0.1994;0.241
31.192000;0.0901;0.0829;0.3841;0.403
31.201000;0.0124;0.0478;0.5631;0.565
31.210000;-0.0417;-0.0119;0.6497;0.651
31.221000;0.3876;0.0773;-0.2434;0.464
31.232000;1.0044;0.5344;-3.5795;3.756
31.247000;-0.0792;0.6356;-1.0730;1.250
31.250000;-0.2953;0.4076;1.8160;1.884
31.260000;0.5919;-0.1747;2.4620;2.538
31.291000;0.1272;-0.2573;1.5540;1.580
31.292000;-0.3263;-0.0583;0.5614;0.652
31.292000;-0.1523;0.0347;-0.0335;0.160
31.303000;0.1895;-0.0165;-0.2072;0.281
